imu_t vicon_t accel_x accel_y accel_z gyro_x gyro_y gyro_z
0.008529 1329939177.154005 507 502 606 374 376 370
0.008529 1329939177.324097 507 502 605 374 376 370
0.008529 1329939177.359255 507 502 605 374 377 370
0.008529 1329939177.367265 507 502 605 373 376 370
0.008529 1329939177.375416 508 502 606 374 376 370
0.008529 1329939177.383977 507 502 605 374 375 370
0.008529 1329939177.392191 507 502 605 374 376 371
0.008529 1329939177.400559 508 502 606 375 375 370
0.008529 1329939177.408567 508 502 605 374 376 370
0.008529 1329939177.417264 508 502 605 374 377 370
0.008529 1329939177.436152 507 502 605 374 376 370
0.008529 1329939177.442274 507 502 605 374 376 370
0.008529 1329939177.450368 508 502 605 375 376 370
0.008529 1329939177.458827 508 502 606 374 375 370
0.008529 1329939177.467077 507 502 605 374 375 370
0.008529 1329939177.477481 507 502 606 374 375 370
0.008529 1329939177.491820 508 502 605 373 376 370
0.008529 1329939177.506589 508 502 605 373 376 370
0.008529 1329939177.546442 508 502 605 375 376 371
0.008529 1329939177.560360 508 502 606 374 376 372
0.008529 1329939177.566538 508 502 606 374 376 370
0.008529 1329939177.574956 508 502 606 374 376 369
0.008529 1329939177.583427 508 502 605 375 377 370
0.008529 1329939177.591944 508 502 605 374 376 369
0.008529 1329939177.599868 508 502 605 375 377 371
0.008529 1329939177.608435 507 502 605 374 377 370
0.008529 1329939177.616550 507 502 606 374 376 370
0.008529 1329939177.625092 507 502 605 375 376 371
0.008529 1329939177.633305 507 502 606 374 377 371
0.008529 1329939177.641678 507 502 605 374 376 370
0.008529 1329939177.649899 508 502 606 374 376 370
0.008529 1329939177.658287 507 502 605 374 375 369
0.008529 1329939177.666462 507 502 605 374 376 372
0.008529 1329939177.674776 508 502 606 374 376 369
0.008529 1329939177.683301 507 502 605 375 376 371
0.008529 1329939177.701141 508 502 606 374 376 371
0.008529 1329939177.708024 508 502 605 374 376 370
0.008529 1329939177.716442 507 502 605 375 375 371
0.008529 1329939177.724552 507 502 605 374 377 369
0.008529 1329939177.732857 508 502 606 374 376 370
0.008529 1329939177.833213 507 502 606 374 377 370
0.008529 1329939177.843620 507 502 606 373 377 371
0.008529 1329939177.849199 508 502 606 374 377 371
0.008529 1329939177.857503 507 502 605 373 376 370
0.008529 1329939177.865737 507 502 605 375 376 370
0.008529 1329939177.874008 508 502 605 375 376 370
0.008529 1329939177.882375 507 502 605 375 377 370
0.008529 1329939177.890601 507 502 605 375 376 371
0.008529 1329939177.899271 508 502 606 375 376 369
0.008529 1329939177.907341 507 502 605 374 377 370
0.008529 1329939177.918622 507 502 605 374 375 370
0.008529 1329939177.923919 507 502 605 374 376 371
0.008529 1329939177.943932 507 502 606 374 376 370
0.008529 1329939177.949093 507 502 605 374 376 370
0.008529 1329939177.961573 507 502 605 374 377 371
0.008529 1329939177.995722 507 502 605 373 375 370
0.008529 1329939178.053753 507 502 605 375 377 370
0.008529 1329939178.057431 507 502 605 374 375 370
0.008529 1329939178.065366 508 502 605 375 375 370
0.008529 1329939178.073714 507 502 606 374 375 370
0.008529 1329939178.083909 507 502 605 373 376 371
0.008529 1329939178.090348 508 502 605 375 377 370
0.008529 1329939178.100880 508 502 606 375 376 370
0.008529 1329939178.107280 508 502 605 374 376 370
0.008529 1329939178.117608 508 502 605 375 376 370
0.008529 1329939178.131422 508 502 606 374 376 369
0.008529 1329939178.153534 507 502 605 374 377 370
0.008529 1329939178.157317 507 502 605 375 377 370
0.062712 1329939178.165342 508 502 606 375 375 371
0.062712 1329939178.174180 508 502 605 375 376 371
0.062712 1329939178.181835 508 502 605 374 376 371
0.062712 1329939178.190329 505 502 606 374 376 370
0.104670 1329939178.199057 504 502 605 374 377 370
0.146183 1329939178.216128 504 503 605 374 376 370
0.146183 1329939178.223819 504 502 605 375 376 370
0.179931 1329939178.232340 504 502 605 375 376 371
0.179931 1329939178.240298 504 502 605 374 376 370
0.233939 1329939178.249226 504 502 605 375 376 370
0.233939 1329939178.257411 504 502 605 374 375 371
0.262275 1329939178.266634 504 503 605 375 377 370
0.262275 1329939178.273612 504 502 605 375 376 370
0.303874 1329939178.281858 504 502 605 375 376 371
0.303874 1329939178.290401 504 503 605 375 376 370
0.345635 1329939178.299223 504 502 605 374 375 371
0.345635 1329939178.307395 505 502 605 374 376 370
0.388459 1329939178.315499 504 502 605 373 376 370
0.388459 1329939178.323824 504 502 605 374 376 371
0.420178 1329939178.331970 504 502 605 375 377 370
0.420178 1329939178.340507 505 502 605 374 377 370
0.521092 1329939178.349715 505 502 605 374 376 370
0.521092 1329939178.357032 504 502 605 374 375 371
0.521092 1329939178.365600 503 502 605 374 376 369
0.521092 1329939178.373935 503 502 605 373 376 370
0.540313 1329939178.382157 504 502 605 374 377 371
0.540313 1329939178.390426 505 503 605 374 377 370
0.593498 1329939178.404269 506 502 605 373 376 370
0.593498 1329939178.406827 504 503 605 374 375 370
0.631972 1329939178.415349 502 502 605 374 375 370
0.631972 1329939178.423916 502 502 605 374 376 369
0.673266 1329939178.432070 504 502 605 374 376 370
0.673266 1329939178.440253 505 503 606 374 376 370
0.742594 1329939178.448512 505 502 605 375 377 370
0.742594 1329939178.457177 504 503 605 374 375 371
0.742594 1329939178.465080 503 502 605 375 375 369
0.742594 1329939178.473736 503 502 605 374 376 370
0.788840 1329939178.482252 503 502 605 373 376 370
0.788840 1329939178.490117 505 502 605 374 377 370
0.818802 1329939178.503164 506 502 605 374 376 370
0.818802 1329939178.508401 505 502 605 374 376 370
0.862301 1329939178.515205 503 502 605 375 376 370
0.862301 1329939178.523562 502 502 605 374 376 369
0.903670 1329939178.533352 504 502 605 373 376 371
0.903670 1329939178.540237 505 503 605 374 376 371
0.945540 1329939178.553814 506 502 605 374 376 370
0.945540 1329939178.574718 504 502 605 375 376 370
0.986601 1329939178.581835 503 502 606 374 376 370
0.986601 1329939178.590180 503 502 605 374 375 371
1.019267 1329939178.598589 505 502 604 374 376 370
1.019267 1329939178.607139 505 503 605 374 376 370
1.061307 1329939178.615109 504 502 605 374 376 370
1.061307 1329939178.623754 502 502 605 374 375 371
1.102710 1329939178.631878 502 502 605 374 376 371
1.102710 1329939178.640227 505 502 605 373 376 370
1.144555 1329939178.648514 506 503 605 373 376 370
1.144555 1329939178.657110 506 502 605 374 375 370
1.190535 1329939178.665150 503 503 605 374 375 369
1.190535 1329939178.673727 502 502 605 374 376 370
1.220695 1329939178.682061 505 502 602 373 377 369
1.220695 1329939178.690444 504 503 606 374 376 371
1.262106 1329939178.698540 505 501 604 374 377 370
1.262106 1329939178.707036 503 503 605 374 376 370
1.302441 1329939178.715103 504 502 604 374 377 371
1.302441 1329939178.723302 505 502 606 374 377 370
1.344404 1329939178.731933 505 503 604 374 375 371
1.344404 1329939178.740296 503 502 605 374 376 370
1.385878 1329939178.748427 503 503 604 375 376 370
1.385878 1329939178.756835 503 502 605 374 376 371
1.419268 1329939178.765236 505 502 605 374 376 371
1.419268 1329939178.773209 505 503 605 374 376 369
1.460493 1329939178.781923 504 502 605 375 377 370
1.460493 1329939178.789845 503 502 605 373 377 371
1.507219 1329939178.798323 503 502 605 374 377 370
1.507219 1329939178.806470 504 502 606 374 375 370
1.544057 1329939178.819882 504 503 605 374 377 371
1.544057 1329939178.822977 504 502 605 374 375 370
1.585535 1329939178.831767 504 502 605 374 376 370
1.585535 1329939178.840000 504 502 605 374 375 370
1.627935 1329939178.848320 504 502 605 374 376 370
1.627935 1329939178.856759 503 502 605 374 376 370
1.660146 1329939178.864475 504 502 605 374 375 370
1.660146 1329939178.873139 505 503 605 376 377 370
1.706878 1329939178.881430 505 502 605 375 376 370
1.706878 1329939178.889771 503 502 605 374 375 370
1.743602 1329939178.898130 503 502 605 373 376 371
1.743602 1329939178.906566 504 503 605 374 375 370
1.780689 1329939178.914647 505 502 605 374 376 370
1.780689 1329939178.926724 505 502 605 374 376 369
1.818491 1329939178.940598 504 502 605 374 376 370
1.818491 1329939178.948306 504 502 605 374 376 370
1.860315 1329939178.956240 504 503 605 374 377 371
1.860315 1329939178.964791 504 502 605 374 376 370
1.906334 1329939178.972882 503 502 606 375 375 370
1.906334 1329939178.986085 504 502 604 374 376 371
1.943855 1329939178.991900 504 503 606 374 376 370
1.943855 1329939178.998050 505 503 605 375 376 371
2.015631 1329939179.008222 504 502 605 374 376 371
2.015631 1329939179.019527 504 502 604 374 376 370
2.018617 1329939179.022819 503 502 606 375 377 371
2.018617 1329939179.030997 505 502 605 374 376 371
2.065927 1329939179.039710 505 503 605 374 376 371
2.065927 1329939179.048039 504 502 605 374 376 369
2.101767 1329939179.056268 504 503 605 374 376 371
2.101767 1329939179.064497 504 502 605 375 376 370
2.143627 1329939179.073088 504 502 605 375 375 370
2.143627 1329939179.081049 504 502 605 374 376 370
2.185084 1329939179.093339 504 502 605 374 377 371
2.185084 1329939179.098107 505 502 605 375 376 370
2.218602 1329939179.106328 504 502 605 374 377 371
2.218602 1329939179.114761 504 502 605 374 377 371
2.267702 1329939179.123019 503 502 605 375 376 369
2.267702 1329939179.131119 504 503 605 375 377 370
2.301940 1329939179.146682 504 503 605 374 376 370
2.301940 1329939179.158174 505 502 605 374 376 370
2.343656 1329939179.165757 504 502 605 374 375 370
2.343656 1329939179.173073 504 502 605 374 376 370
2.378600 1329939179.181390 504 503 605 374 376 370
2.378600 1329939179.189608 505 502 605 375 376 370
2.428460 1329939179.198201 504 502 605 374 376 370
2.428460 1329939179.206421 504 502 605 374 375 370
2.478432 1329939179.218999 504 502 605 373 376 370
2.478432 1329939179.223091 504 502 605 374 375 370
2.502535 1329939179.231606 504 502 605 374 376 370
2.502535 1329939179.239589 504 502 605 374 376 371
2.543496 1329939179.248148 504 503 605 374 376 370
2.543496 1329939179.256583 504 502 605 375 376 370
2.585265 1329939179.264897 504 502 605 375 376 371
2.585265 1329939179.272907 504 502 605 374 376 369
2.626261 1329939179.281095 504 502 605 373 377 370
2.626261 1329939179.289813 504 502 605 374 377 370
2.659950 1329939179.328126 505 502 605 374 375 370
2.659950 1329939179.331345 504 502 605 374 376 370
2.704328 1329939179.339861 503 502 605 375 375 370
2.704328 1329939179.347922 504 502 605 374 376 371
2.738471 1329939179.359972 504 502 605 374 375 371
2.738471 1329939179.366574 504 502 606 374 377 369
2.784477 1329939179.378595 504 502 605 374 375 371
2.784477 1329939179.401506 504 502 605 374 376 371
2.818103 1329939179.406246 504 502 605 373 377 370
2.818103 1329939179.414410 504 502 606 374 376 370
2.859437 1329939179.422825 504 502 605 374 376 370
2.859437 1329939179.431401 504 503 605 374 376 370
2.900867 1329939179.439558 505 502 605 374 376 369
2.900867 1329939179.448030 504 503 605 374 375 370
2.939899 1329939179.456279 504 502 605 375 377 371
2.939899 1329939179.464461 504 503 605 374 376 370
2.984465 1329939179.472645 505 502 604 374 377 370
2.984465 1329939179.481182 504 502 605 374 377 370
3.022143 1329939179.489491 504 502 605 375 376 370
3.022143 1329939179.497684 504 502 605 373 376 371
3.059407 1329939179.506203 504 502 605 374 375 370
3.059407 1329939179.514407 504 502 605 374 376 370
3.100563 1329939179.522740 504 503 605 374 376 370
3.100563 1329939179.531188 504 502 605 373 376 370
3.142732 1329939179.539804 504 502 605 374 376 371
3.142732 1329939179.554014 504 502 604 375 376 370
3.185306 1329939179.566221 504 502 605 373 375 370
3.185306 1329939179.580362 504 502 605 375 375 370
3.225771 1329939179.594350 504 502 605 374 376 371
3.225771 1329939179.608125 503 503 605 374 377 370
3.258681 1329939179.614622 505 502 606 373 377 370
3.258681 1329939179.622803 505 502 605 373 376 370
3.300529 1329939179.637207 505 502 605 375 376 370
3.300529 1329939179.639552 504 502 605 374 376 371
3.342582 1329939179.647753 504 502 605 374 376 370
3.342582 1329939179.656293 504 502 605 374 376 371
3.383453 1329939179.664539 504 502 605 373 376 371
3.383453 1329939179.672975 504 502 605 374 376 370
3.425362 1329939179.681321 504 502 605 375 375 370
3.425362 1329939179.691232 504 502 605 374 376 369
3.461175 1329939179.697683 504 502 605 375 376 370
3.461175 1329939179.705975 504 502 605 375 376 371
3.500104 1329939179.714551 504 502 605 375 376 370
3.500104 1329939179.722694 504 502 605 374 376 370
3.541249 1329939179.730950 504 502 605 375 375 370
3.541249 1329939179.741134 504 502 605 374 377 371
3.583354 1329939179.753059 504 502 605 375 377 370
3.583354 1329939179.767546 504 502 606 374 376 370
3.625080 1329939179.790201 504 502 605 375 376 370
3.625080 1329939179.802014 504 502 605 375 376 370
3.658363 1329939179.807051 504 502 605 374 376 370
3.658363 1329939179.814341 504 502 605 374 376 370
3.700156 1329939179.823012 504 503 605 374 376 371
3.700156 1329939179.831077 504 503 604 374 377 370
3.751947 1329939179.839029 504 502 605 374 376 370
3.751947 1329939179.847892 504 502 605 373 376 370
3.783188 1329939179.856217 504 502 605 375 376 370
3.783188 1329939179.864051 504 503 604 373 376 370
3.820743 1329939179.872927 503 502 605 374 376 370
3.820743 1329939179.881025 503 502 605 374 376 370
3.858493 1329939179.889027 504 502 606 374 376 371
3.858493 1329939179.897945 505 503 604 375 376 370
3.899824 1329939179.906056 505 503 604 374 377 371
3.899824 1329939179.913985 504 501 606 374 376 370
3.941364 1329939179.923107 502 502 604 374 376 370
3.941364 1329939179.931008 503 502 605 374 377 371
3.982729 1329939179.938962 505 502 606 374 377 372
3.982729 1329939179.947500 507 502 606 374 376 370
4.024577 1329939179.955992 505 502 605 374 376 370
4.024577 1329939179.963991 503 502 606 375 376 371
4.066313 1329939179.972639 503 502 604 374 377 370
4.066313 1329939179.980842 504 502 605 374 376 370
4.101311 1329939179.990813 504 502 606 374 376 370
4.101311 1329939180.002868 504 502 605 374 376 370
4.143587 1329939180.017012 505 503 606 375 377 370
4.143587 1329939180.039689 505 502 605 374 376 370
4.182445 1329939180.051127 504 502 606 374 376 370
4.182445 1329939180.056757 502 502 605 374 377 369
4.224295 1329939180.063640 503 502 605 373 376 370
4.224295 1329939180.072851 505 502 605 374 376 370
4.267346 1329939180.080584 504 501 605 373 376 370
4.267346 1329939180.088930 502 504 604 373 377 372
4.299374 1329939180.097099 502 503 605 374 376 371
4.299374 1329939180.105513 505 501 605 375 378 371
4.347211 1329939180.113853 505 504 605 375 383 371
4.347211 1329939180.122014 509 501 607 375 388 370
4.382620 1329939180.130617 507 505 604 375 391 369
4.382620 1329939180.138775 504 501 605 374 400 369
4.424295 1329939180.147264 503 502 604 376 407 370
4.424295 1329939180.155509 503 502 604 376 412 370
4.465895 1329939180.163701 506 504 607 373 407 373
4.465895 1329939180.172074 506 509 606 373 399 375
4.501543 1329939180.180610 512 507 607 374 396 376
4.501543 1329939180.188669 514 506 611 371 394 373
4.548462 1329939180.196994 515 505 612 367 392 374
4.548462 1329939180.205601 516 507 618 364 390 377
4.582325 1329939180.213511 515 513 624 366 381 377
4.582325 1329939180.222071 512 516 630 374 370 376
4.623996 1329939180.230564 511 518 632 379 360 375
4.623996 1329939180.240737 510 516 636 377 356 375
4.665883 1329939180.252546 508 519 641 376 349 379
4.665883 1329939180.255236 509 520 640 380 332 377
4.698668 1329939180.263432 508 520 638 382 318 373
4.698668 1329939180.272543 506 517 636 382 311 370
4.742287 1329939180.280494 504 518 630 377 316 368
4.742287 1329939180.288725 500 520 627 376 324 367
4.782413 1329939180.297147 496 518 625 376 332 368
4.782413 1329939180.305370 497 516 627 376 342 365
4.827071 1329939180.313387 501 516 623 372 352 365
4.827071 1329939180.322000 503 519 618 370 361 363
4.859659 1329939180.334796 500 515 614 370 365 363
4.859659 1329939180.338648 501 507 614 363 361 366
4.899110 1329939180.347040 503 506 609 360 357 367
4.899110 1329939180.355262 508 507 604 353 354 362
4.940742 1329939180.363804 506 510 602 354 355 359
4.940742 1329939180.372075 497 506 599 357 355 355
4.982292 1329939180.381281 501 506 598 359 355 358
4.982292 1329939180.388553 502 507 598 356 357 359
5.024217 1329939180.397185 498 506 600 356 365 359
5.024217 1329939180.405435 494 502 593 360 373 362
5.065853 1329939180.413201 493 498 586 362 377 362
5.065853 1329939180.422078 497 498 583 367 379 363
5.099389 1329939180.430443 496 498 587 367 381 360
5.099389 1329939180.438709 495 494 589 362 383 355
5.140838 1329939180.446928 498 496 590 364 382 351
5.140838 1329939180.455401 501 501 591 370 381 347
5.182275 1329939180.463189 502 500 589 385 374 347
5.182275 1329939180.472048 498 502 587 389 363 351
5.228631 1329939180.480409 491 500 590 380 353 349
5.228631 1329939180.497956 488 494 591 379 343 345
5.275644 1329939180.505286 492 495 588 379 342 343
5.275644 1329939180.513419 493 495 584 376 342 347
5.299628 1329939180.521537 491 493 584 375 342 348
5.299628 1329939180.529991 487 492 588 370 347 350
5.341266 1329939180.538433 484 489 589 368 350 352
5.341266 1329939180.547511 486 492 591 372 358 352
5.382969 1329939180.555142 483 493 591 375 368 355
5.382969 1329939180.563502 482 494 589 374 374 359
5.424128 1329939180.571370 484 497 587 376 375 361
5.424128 1329939180.580109 484 496 593 375 379 363
5.466100 1329939180.588525 481 496 599 370 387 365
5.466100 1329939180.596506 483 496 598 369 389 364
5.499330 1329939180.610259 485 498 597 374 383 363
5.499330 1329939180.613211 486 499 598 382 380 364
5.541746 1329939180.621469 484 499 600 383 382 364
5.541746 1329939180.631811 486 500 600 375 386 365
5.582517 1329939180.643582 485 499 599 373 385 365
5.582517 1329939180.655268 487 495 598 375 380 364
5.624044 1329939180.657583 488 493 596 378 373 365
5.624044 1329939180.663166 487 496 596 376 369 367
5.665917 1329939180.671117 485 499 596 373 367 368
5.665917 1329939180.679794 485 501 596 364 369 369
5.704897 1329939180.688001 487 494 595 354 373 372
5.704897 1329939180.696121 491 502 602 352 381 372
5.741129 1329939180.714771 470 508 603 363 379 370
5.741129 1329939180.728129 491 506 608 374 383 368
5.783866 1329939180.729994 495 506 606 371 386 373
5.783866 1329939180.737971 479 498 607 375 379 379
5.824163 1329939180.746238 492 501 608 384 361 373
5.824163 1329939180.754443 488 501 608 388 339 372
5.866042 1329939180.763229 484 506 606 382 329 370
5.866042 1329939180.773735 484 503 600 376 327 368
5.899076 1329939180.779288 479 499 589 372 331 367
5.899076 1329939180.787824 479 498 579 368 339 369
5.940872 1329939180.796203 479 499 573 368 352 372
5.940872 1329939180.804254 477 502 567 370 367 371
5.978703 1329939180.812765 481 504 563 377 384 370
5.978703 1329939180.821099 483 504 560 382 406 370
6.019239 1329939180.829302 481 503 558 386 433 372
6.019239 1329939180.837834 485 502 557 387 463 373
6.065576 1329939180.846056 490 501 559 389 493 372
6.065576 1329939180.853907 496 502 564 387 525 372
6.098942 1329939180.862640 505 501 572 384 555 368
6.098942 1329939180.876293 513 497 587 377 585 371
6.139920 1329939180.889347 518 504 628 377 607 369
6.139920 1329939180.896051 524 512 666 383 589 369
6.178366 1329939180.904389 549 515 696 384 504 368
6.178366 1329939180.912413 546 507 728 377 388 367
6.223424 1329939180.921112 537 499 736 370 283 368
6.223424 1329939180.929281 537 504 713 369 198 369
6.265318 1329939180.937738 526 505 679 371 143 370
6.265318 1329939180.946039 515 500 641 367 123 373
6.298794 1329939180.954416 506 499 603 359 136 378
6.298794 1329939180.962160 496 505 567 355 163 377
6.339711 1329939180.970960 493 502 540 353 195 371
6.339711 1329939180.979242 488 499 519 360 237 372
6.381900 1329939180.987603 483 502 506 367 288 371
6.381900 1329939180.995982 480 503 496 374 345 370
6.423369 1329939181.004369 479 505 492 382 400 371
6.423369 1329939181.012447 481 507 496 387 460 373
6.465111 1329939181.021014 483 503 512 381 528 378
6.465111 1329939181.029221 494 503 546 373 601 379
6.499326 1329939181.037528 507 505 592 368 661 380
6.499326 1329939181.050784 528 513 649 371 687 377
6.539351 1329939181.064573 553 508 713 370 670 377
6.539351 1329939181.070767 575 503 758 374 577 383
6.581184 1329939181.079391 570 508 776 378 424 382
6.581184 1329939181.087819 557 509 768 382 279 378
6.627313 1329939181.095803 537 506 739 384 178 375
6.627313 1329939181.111532 514 504 703 382 120 373
6.664559 1329939181.133370 486 505 673 377 102 371
6.664559 1329939181.144368 460 507 647 375 111 370
6.706543 1329939181.148700 450 506 624 373 122 366
6.706543 1329939181.154313 459 501 605 373 114 366
6.739467 1329939181.162618 451 498 586 374 108 369
6.739467 1329939181.171099 442 495 572 371 121 372
6.798036 1329939181.179154 429 499 563 373 147 372
6.798036 1329939181.189326 421 504 554 376 167 368
6.822898 1329939181.196204 407 506 548 376 187 368
6.822898 1329939181.204501 398 508 542 374 213 368
6.864106 1329939181.212484 393 510 535 368 241 369
6.864106 1329939181.221018 398 506 530 370 257 364
6.905096 1329939181.229228 406 500 523 378 268 359
6.905096 1329939181.248590 421 496 508 387 276 357
6.938607 1329939181.254018 442 498 485 395 286 357
6.938607 1329939181.262521 459 501 468 402 319 358
6.979569 1329939181.270699 482 501 474 400 406 358
6.979569 1329939181.278994 498 500 495 394 534 359
7.020945 1329939181.287515 524 496 527 396 633 358
7.020945 1329939181.295296 541 503 556 394 668 354
7.063447 1329939181.304119 564 512 587 388 650 352
7.063447 1329939181.312376 564 505 621 386 618 353
7.104769 1329939181.320432 561 497 648 377 573 357
7.104769 1329939181.329155 553 495 651 376 501 366
7.146680 1329939181.337213 537 503 641 379 421 374
7.146680 1329939181.349176 524 506 631 377 369 378
7.179700 1329939181.353925 511 496 621 373 348 382
7.179700 1329939181.362296 505 493 608 375 333 383
7.221327 1329939181.370512 486 497 597 377 329 387
7.221327 1329939181.378969 471 498 590 377 336 388
7.263261 1329939181.386895 466 497 587 378 348 385
7.263261 1329939181.395352 468 495 582 378 357 379
7.305088 1329939181.408664 463 496 577 375 361 378
7.305088 1329939181.413966 456 501 578 371 363 377
7.338441 1329939181.420211 452 500 576 369 367 378
7.338441 1329939181.428588 454 498 573 362 368 374
7.380214 1329939181.438294 448 496 573 355 367 372
7.380214 1329939181.445370 448 496 574 352 367 370
7.421592 1329939181.456234 452 497 575 357 366 369
7.421592 1329939181.467322 453 497 573 365 368 371
7.463599 1329939181.470202 447 498 575 364 372 374
7.463599 1329939181.478721 445 498 576 360 379 372
7.505039 1329939181.487007 452 496 576 359 386 368
7.505039 1329939181.495127 449 496 574 368 386 369
7.538712 1329939181.509610 445 499 577 373 389 373
7.538712 1329939181.512057 442 501 582 370 396 376
7.581196 1329939181.525182 448 502 585 365 404 373
7.581196 1329939181.528733 446 503 588 369 412 370
7.621983 1329939181.536953 446 498 589 372 413 366
7.621983 1329939181.545258 448 495 590 374 412 367
7.665847 1329939181.553694 454 502 591 376 409 370
7.665847 1329939181.566312 454 507 593 380 403 372
7.709807 1329939181.579999 449 506 594 383 400 371
7.709807 1329939181.587091 451 501 597 382 401 369
7.738611 1329939181.595095 452 500 595 378 399 366
7.738611 1329939181.603493 457 502 593 373 393 365
7.780172 1329939181.612034 459 502 595 370 392 366
7.780172 1329939181.626238 455 500 599 367 396 370
7.822048 1329939181.648409 457 501 604 369 403 370
7.822048 1329939181.659732 460 504 605 367 409 370
7.863559 1329939181.663918 459 505 604 367 408 370
7.863559 1329939181.670144 459 503 604 369 405 371
7.905400 1329939181.678661 462 502 606 372 403 372
7.905400 1329939181.686992 466 502 605 375 402 372
7.938738 1329939181.695300 466 504 605 377 400 372
7.938738 1329939181.703531 465 505 602 376 393 369
7.979891 1329939181.711831 464 503 601 376 385 366
7.979891 1329939181.720039 465 499 602 373 384 365
8.027664 1329939181.728704 468 500 603 373 387 363
8.027664 1329939181.736965 469 501 602 372 390 363
8.063669 1329939181.745228 474 502 599 371 394 361
8.063669 1329939181.764726 476 502 594 371 392 362
8.105239 1329939181.770078 479 502 591 371 389 362
8.105239 1329939181.778531 483 501 590 374 385 365
8.139056 1329939181.788778 481 499 592 372 386 369
8.139056 1329939181.795042 478 499 595 366 392 371
8.179963 1329939181.814203 478 502 596 364 398 372
8.179963 1329939181.836520 478 504 598 365 403 371
8.221653 1329939181.847039 478 504 603 365 407 372
8.221653 1329939181.861071 476 502 607 365 413 373
8.263247 1329939181.873854 476 505 612 371 413 370
8.263247 1329939181.878161 477 507 613 373 408 368
8.304770 1329939181.886589 477 505 613 374 399 367
8.304770 1329939181.895003 478 501 614 376 388 365
8.340825 1329939181.913969 477 500 613 376 376 363
8.340825 1329939181.919979 478 501 610 376 368 363
8.379332 1329939181.928250 478 503 606 373 362 364
8.379332 1329939181.936685 479 503 602 373 358 366
8.427423 1329939181.945180 480 502 599 371 359 367
8.427423 1329939181.953253 479 501 598 370 365 368
8.460666 1329939181.961847 479 502 598 371 369 369
8.460666 1329939181.969837 479 504 596 372 374 370
8.504487 1329939181.978431 480 503 597 372 378 371
8.504487 1329939181.986587 480 503 598 371 381 371
8.546069 1329939181.995146 481 503 598 372 382 371
8.546069 1329939182.003431 482 503 600 374 380 371
8.579678 1329939182.011217 482 504 601 373 379 370
8.579678 1329939182.021858 481 503 601 374 377 369
8.621050 1329939182.028268 482 503 601 372 375 370
8.621050 1329939182.038176 481 502 602 372 377 370
8.664467 1329939182.045133 481 504 603 374 379 370
8.664467 1329939182.054948 480 504 603 375 381 369
8.702893 1329939182.061326 481 501 604 373 382 370
8.702893 1329939182.070854 481 501 604 372 383 370
8.737542 1329939182.078182 482 504 603 372 381 370
8.737542 1329939182.086536 483 504 602 372 376 371
8.779183 1329939182.095068 483 502 600 372 373 371
8.779183 1329939182.103390 483 502 596 371 370 371
8.820776 1329939182.111147 484 503 591 369 368 372
8.820776 1329939182.128756 483 503 584 367 368 371
8.862408 1329939182.139683 481 503 576 364 369 370
8.862408 1329939182.147915 482 502 567 364 371 369
8.901396 1329939182.153135 481 501 559 367 377 370
8.901396 1329939182.161415 482 500 550 373 386 371
8.937488 1329939182.172251 483 501 541 383 400 371
8.937488 1329939182.180188 488 503 530 393 415 371
8.978739 1329939182.191191 496 504 528 403 444 370
8.978739 1329939182.205182 493 509 545 409 505 367
9.020965 1329939182.211778 495 502 563 404 582 363
9.020965 1329939182.219984 513 488 592 385 642 361
9.062544 1329939182.228160 536 494 640 373 666 364
9.062544 1329939182.239003 556 512 692 372 634 357
9.103680 1329939182.244834 579 511 732 369 543 353
9.103680 1329939182.253459 576 501 760 365 420 356
9.145681 1329939182.262037 562 503 762 367 299 363
9.145681 1329939182.270037 554 508 734 374 198 365
9.179122 1329939182.278340 538 505 698 375 136 367
9.179122 1329939182.288850 520 499 660 367 115 374
9.220509 1329939182.294987 510 500 623 361 118 378
9.220509 1329939182.305926 502 500 588 359 138 381
9.262023 1329939182.312072 495 499 557 359 165 381
9.262023 1329939182.319901 489 495 534 358 201 382
9.303654 1329939182.328520 484 497 518 360 242 379
9.303654 1329939182.336863 481 501 506 367 292 376
9.345897 1329939182.344990 481 503 495 376 341 373
9.345897 1329939182.354792 483 505 490 382 391 370
9.378646 1329939182.362072 484 505 495 391 447 368
9.378646 1329939182.370006 490 508 506 396 505 369
9.431573 1329939182.378561 497 508 528 391 562 373
9.431573 1329939182.386923 508 505 567 384 617 375
9.461952 1329939182.395207 513 499 623 381 656 376
9.461952 1329939182.403550 531 503 686 385 655 374
9.503580 1329939182.412076 562 512 736 385 586 369
9.503580 1329939182.420058 563 499 769 380 458 369
9.544872 1329939182.428839 550 499 770 373 320 367
9.544872 1329939182.437008 539 508 739 370 201 366
9.579982 1329939182.445359 524 505 699 363 126 367
9.579982 1329939182.453439 497 498 662 351 106 375
9.620129 1329939182.462241 476 498 633 341 123 382
9.620129 1329939182.470062 454 502 614 338 156 384
9.663916 1329939182.478858 443 507 603 346 189 382
9.663916 1329939182.486874 431 508 598 357 208 380
9.703290 1329939182.494956 427 506 593 361 211 375
9.703290 1329939182.503541 418 503 592 358 206 370
9.738152 1329939182.518390 416 507 593 365 200 363
9.738152 1329939182.541143 416 513 588 377 193 358
9.778408 1329939182.564601 418 509 580 381 187 354
9.778408 1329939182.588149 415 503 574 380 187 353
9.819963 1329939182.602215 418 495 565 385 181 352
9.819963 1329939182.605348 418 502 551 393 169 349
9.870244 1329939182.612213 422 503 533 397 160 350
9.870244 1329939182.623246 419 503 512 401 157 350
9.902472 1329939182.628528 423 503 487 407 172 351
9.902472 1329939182.637058 420 505 467 399 217 352
9.943595 1329939182.645582 424 501 456 396 282 353
9.943595 1329939182.653926 434 492 452 401 364 351
9.984916 1329939182.662212 452 486 451 408 455 356
9.984916 1329939182.678644 471 488 465 415 549 362
10.019922 1329939182.687097 502 509 499 408 646 364
10.019922 1329939182.695539 536 512 538 392 721 361
10.067110 1329939182.703397 561 483 579 381 767 354
10.067110 1329939182.712075 581 479 602 370 767 356
10.107676 1329939182.720392 590 506 627 360 729 363
10.107676 1329939182.728355 578 510 652 369 667 366
10.143882 1329939182.736796 563 502 672 377 584 368
10.143882 1329939182.745507 558 493 668 383 470 376
10.185734 1329939182.753558 550 497 653 391 349 384
10.185734 1329939182.761847 535 502 636 396 272 387
10.219064 1329939182.770444 515 502 617 386 244 390
10.219064 1329939182.778771 491 497 600 372 240 392
10.260264 1329939182.798049 477 490 587 362 250 393
10.260264 1329939182.804013 471 491 578 354 266 392
10.301345 1329939182.811898 465 499 570 348 282 386
10.301345 1329939182.820048 458 502 564 342 296 376
10.343732 1329939182.828657 450 493 561 337 311 378
10.343732 1329939182.836545 444 482 564 334 331 382
10.385372 1329939182.845420 442 490 563 328 354 385
10.385372 1329939182.854324 447 506 557 324 370 384
10.422372 1329939182.861661 445 509 556 331 384 385
10.422372 1329939182.870172 445 503 563 346 403 388
10.460244 1329939182.878507 439 504 563 355 418 388
10.460244 1329939182.886746 440 516 563 356 426 380
10.502538 1329939182.895167 440 518 563 362 427 377
10.502538 1329939182.903645 438 506 571 372 426 376
10.537686 1329939182.911779 438 501 580 384 436 375
10.537686 1329939182.920129 440 508 584 388 448 371
10.577612 1329939182.928452 448 514 584 388 453 370
10.577612 1329939182.936701 450 516 585 388 446 366
10.619309 1329939182.949480 452 513 591 389 437 364
10.619309 1329939182.953835 454 506 596 385 434 365
10.660964 1329939182.961670 461 503 597 381 428 368
10.660964 1329939182.969840 460 506 596 378 419 371
10.700334 1329939182.978582 458 513 596 377 407 374
10.700334 1329939182.986663 459 517 596 372 404 375
10.744475 1329939183.002783 463 512 600 364 410 374
10.744475 1329939183.017407 467 504 603 362 420 374
10.785701 1329939183.020236 466 504 603 366 426 376
10.785701 1329939183.028444 466 506 602 370 427 376
10.819165 1329939183.038636 470 509 606 367 431 378
10.819165 1329939183.045205 471 510 608 364 432 377
10.860755 1329939183.053794 475 508 608 367 430 373
10.860755 1329939183.069918 474 508 610 371 426 370
10.902319 1329939183.081898 473 507 612 377 422 368
10.902319 1329939183.096521 478 508 613 378 419 367
10.944328 1329939183.111441 481 507 614 381 414 367
10.944328 1329939183.114501 483 508 615 385 411 365
10.985538 1329939183.119954 485 507 616 384 412 364
10.985538 1329939183.128484 486 506 614 382 412 364
11.019180 1329939183.136831 489 506 612 379 408 366
11.019180 1329939183.145012 488 507 611 379 404 367
11.060761 1329939183.153577 489 507 610 381 401 366
11.060761 1329939183.161760 492 503 611 377 399 367
11.102524 1329939183.170094 492 502 612 375 399 368
11.102524 1329939183.178680 491 504 612 372 396 369
11.143713 1329939183.186529 493 505 610 372 392 368
11.143713 1329939183.195041 494 504 610 373 387 369
11.185034 1329939183.203504 495 504 612 373 384 369
11.185034 1329939183.211686 494 506 611 374 381 370
11.218677 1329939183.221369 495 507 609 375 379 370
11.218677 1329939183.228635 494 506 608 375 376 370
11.263277 1329939183.236663 493 505 608 375 376 369
11.263277 1329939183.245025 495 505 608 377 376 371
11.301797 1329939183.253551 495 505 607 377 376 371
11.301797 1329939183.261471 495 505 605 378 376 370
11.343888 1329939183.277059 496 506 603 376 374 371
11.343888 1329939183.291337 495 507 603 375 374 371
11.384492 1329939183.294679 496 506 603 374 374 372
11.384492 1329939183.303252 497 504 604 373 377 373
11.418802 1329939183.311588 497 506 603 374 377 372
11.418802 1329939183.319779 497 508 603 373 377 372
11.460114 1329939183.331791 496 507 602 372 376 372
11.460114 1329939183.336426 496 506 603 372 374 372
11.501875 1329939183.344615 496 505 604 371 374 371
11.501875 1329939183.353143 497 505 604 372 376 370
11.543735 1329939183.361737 496 506 605 373 376 371
11.543735 1329939183.369710 496 507 605 374 377 371
11.585263 1329939183.378231 496 506 605 373 376 370
11.585263 1329939183.386385 496 505 604 371 377 371
11.618449 1329939183.394677 496 505 604 370 378 370
11.618449 1329939183.402885 497 506 605 372 378 370
11.659717 1329939183.411600 496 506 605 374 377 370
11.659717 1329939183.419548 497 506 606 372 376 370
11.701367 1329939183.427838 497 507 605 373 375 371
11.701367 1329939183.436289 496 507 605 374 373 371
11.743554 1329939183.444789 496 506 606 375 370 369
11.743554 1329939183.452585 496 506 608 374 371 370
11.784793 1329939183.461429 494 507 610 372 370 370
11.784793 1329939183.469450 495 508 611 371 369 369
11.818218 1329939183.477979 492 508 614 371 363 368
11.818218 1329939183.491035 491 509 619 371 356 366
11.868078 1329939183.494348 491 508 624 369 346 366
11.868078 1329939183.502423 491 505 625 366 336 364
11.901148 1329939183.511380 491 505 626 362 323 362
11.901148 1329939183.519341 491 508 623 360 304 364
11.943403 1329939183.527708 490 509 617 360 287 364
11.943403 1329939183.536108 488 508 607 361 272 365
11.984675 1329939183.544612 487 507 597 363 264 367
11.984675 1329939183.552783 485 507 583 365 263 368
12.017713 1329939183.561444 484 507 569 371 267 368
12.017713 1329939183.569649 481 506 555 377 279 369
12.059652 1329939183.577984 479 505 542 384 297 370
12.059652 1329939183.586258 478 505 531 395 327 369
12.101410 1329939183.596216 476 504 525 401 366 368
12.101410 1329939183.602500 474 503 522 398 417 367
12.147293 1329939183.611364 476 503 523 390 476 367
12.147293 1329939183.619529 481 499 531 376 542 365
12.184434 1329939183.627766 490 502 552 361 606 368
12.184434 1329939183.636012 500 508 590 350 661 370
12.219897 1329939183.646416 513 521 643 346 684 368
12.219897 1329939183.652399 533 517 698 345 641 361
12.266864 1329939183.661213 543 504 740 340 519 359
12.266864 1329939183.669654 538 517 760 345 364 364
12.300671 1329939183.677718 528 529 750 367 236 364
12.300671 1329939183.686040 521 522 722 381 151 364
12.342388 1329939183.694524 509 508 679 375 107 367
12.342388 1329939183.702499 500 503 633 366 97 375
12.384168 1329939183.711293 491 504 593 358 110 383
12.384168 1329939183.719329 483 504 558 351 143 385
12.418087 1329939183.727744 476 506 531 343 182 381
12.418087 1329939183.736003 478 503 515 349 229 378
12.458755 1329939183.744470 471 507 502 353 281 372
12.458755 1329939183.754412 469 509 491 362 337 366
12.500853 1329939183.761243 473 509 486 371 394 360
12.500853 1329939183.769237 475 509 491 377 452 359
12.542235 1329939183.777773 479 514 509 390 512 360
12.542235 1329939183.785939 482 516 534 405 566 363
12.584198 1329939183.794496 491 510 553 417 604 368
12.584198 1329939183.808904 507 513 583 415 636 375
12.625900 1329939183.812028 510 504 643 404 675 383
12.625900 1329939183.819013 516 508 694 413 688 384
12.659475 1329939183.827354 536 524 727 419 634 378
12.659475 1329939183.835823 550 511 747 412 508 374
12.700607 1329939183.843728 540 495 752 398 366 372
12.700607 1329939183.851984 532 503 729 387 237 369
12.742365 1329939183.862877 512 508 697 376 148 369
12.742365 1329939183.868784 486 502 668 360 117 374
12.784044 1329939183.877224 462 501 647 351 131 381
12.784044 1329939183.885609 447 508 627 352 153 384
12.825043 1329939183.893758 440 515 610 355 169 381
12.825043 1329939183.902103 448 511 601 356 169 379
12.883551 1329939183.911677 458 504 594 360 160 378
12.883551 1329939183.927801 461 499 595 361 158 378
12.901026 1329939183.940015 459 495 588 361 159 379
12.901026 1329939183.945852 454 496 577 361 154 378
12.941967 1329939183.952402 447 496 564 359 140 379
12.941967 1329939183.960701 436 502 557 355 128 379
12.982641 1329939183.977224 413 507 551 355 123 374
12.982641 1329939183.989324 405 510 539 356 125 369
13.024088 1329939183.995016 392 519 517 362 144 371
13.024088 1329939184.002662 379 522 495 363 197 365
13.065293 1329939184.010563 378 521 484 374 274 352
13.065293 1329939184.019146 391 520 478 400 341 341
13.098361 1329939184.027794 410 513 476 414 384 336
13.098361 1329939184.041930 426 508 475 420 412 336
13.140033 1329939184.044536 439 507 475 424 438 340
13.140033 1329939184.052109 458 509 474 432 463 347
13.181947 1329939184.060120 481 505 482 443 497 350
13.181947 1329939184.068834 500 492 505 448 562 352
13.223817 1329939184.077071 509 481 525 432 640 354
13.223817 1329939184.086853 533 500 551 407 693 357
13.257757 1329939184.110670 542 498 599 381 720 351
13.257757 1329939184.118622 541 488 629 360 691 346
13.298553 1329939184.126762 550 488 646 339 581 351
13.298553 1329939184.135616 537 504 659 333 439 362
13.340168 1329939184.143832 524 512 662 341 331 367
13.340168 1329939184.152079 515 503 647 346 271 371
13.381381 1329939184.170734 504 495 623 353 240 374
13.381381 1329939184.176765 487 494 602 356 235 378
13.419152 1329939184.184454 474 493 586 356 253 383
13.419152 1329939184.192915 463 496 578 358 278 384
13.469750 1329939184.201382 458 504 574 361 307 377
13.469750 1329939184.209352 451 509 565 374 325 373
13.502258 1329939184.217814 448 502 561 380 335 371
13.502258 1329939184.226431 446 503 559 376 345 372
13.546379 1329939184.234417 453 504 557 372 356 368
13.546379 1329939184.242886 449 502 552 371 364 372
13.581233 1329939184.251307 436 497 547 369 371 377
13.581233 1329939184.259098 426 502 550 358 374 373
13.623302 1329939184.267322 429 511 552 351 380 365
13.623302 1329939184.280216 437 516 551 350 386 358
13.664683 1329939184.283831 430 511 546 356 390 363
13.664683 1329939184.292229 424 496 549 361 394 368
13.718404 1329939184.300992 419 499 552 362 403 367
13.718404 1329939184.309192 422 509 557 360 415 366
13.740643 1329939184.317420 422 516 559 365 424 366
13.740643 1329939184.333581 424 512 563 374 429 364
13.785377 1329939184.344157 425 498 567 379 434 364
13.785377 1329939184.350808 430 492 569 375 437 365
13.824044 1329939184.359052 430 505 571 369 440 366
13.824044 1329939184.367212 429 516 571 365 433 368
13.857438 1329939184.376093 435 515 574 366 429 370
13.857438 1329939184.384202 441 508 574 367 426 370
13.908968 1329939184.405140 442 507 577 368 425 369
13.908968 1329939184.409397 437 504 578 369 424 367
13.940504 1329939184.417475 441 502 579 372 422 369
13.940504 1329939184.425683 448 501 579 373 421 372
13.988519 1329939184.434332 450 508 582 376 425 371
13.988519 1329939184.442450 448 512 586 377 435 368
14.018320 1329939184.450781 450 506 590 378 446 366
14.018320 1329939184.459344 452 501 592 379 452 365
14.069013 1329939184.467554 455 504 592 378 453 363
14.069013 1329939184.475670 458 509 593 376 452 362
14.099144 1329939184.484245 458 507 597 371 451 362
14.099144 1329939184.492344 462 503 601 368 446 360
14.141025 1329939184.500729 469 504 602 366 439 360
14.141025 1329939184.509381 469 506 604 366 435 360
14.182253 1329939184.517389 468 505 606 364 432 361
14.182253 1329939184.525585 470 503 610 368 429 360
14.224426 1329939184.534027 472 504 611 373 427 363
14.224426 1329939184.542324 475 506 610 375 426 361
14.277401 1329939184.550460 476 506 609 373 424 360
14.277401 1329939184.559144 478 503 610 370 423 363
14.299419 1329939184.567335 478 505 610 373 421 363
14.299419 1329939184.575920 481 506 610 377 419 365
14.347395 1329939184.584173 481 504 610 378 413 367
14.347395 1329939184.592664 482 503 608 376 410 370
14.384899 1329939184.600972 485 502 609 372 408 371
14.384899 1329939184.609426 486 502 610 369 406 372
14.432068 1329939184.617742 488 501 612 370 405 371
14.432068 1329939184.626227 488 502 614 373 404 370
14.469083 1329939184.634561 488 504 611 374 401 372
14.469083 1329939184.642948 490 504 609 373 394 371
14.498885 1329939184.651019 491 504 609 371 389 370
14.498885 1329939184.659446 491 505 609 372 384 369
14.540456 1329939184.667926 492 506 608 372 381 371
14.540456 1329939184.676368 491 506 608 372 381 371
14.581881 1329939184.684655 492 505 607 374 382 371
14.581881 1329939184.692903 492 506 608 374 385 371
14.623726 1329939184.701389 492 505 608 375 387 370
14.623726 1329939184.709494 492 505 607 376 386 370
14.667078 1329939184.718095 492 504 607 378 385 371
14.667078 1329939184.725915 493 505 606 379 383 371
14.698459 1329939184.734278 492 504 606 378 382 371
14.698459 1329939184.742870 492 504 607 376 380 373
14.740580 1329939184.751153 493 503 607 374 378 371
14.740580 1329939184.759617 493 503 606 375 374 373
14.781763 1329939184.767975 493 504 606 374 371 371
14.781763 1329939184.776260 493 505 606 374 369 372
14.823366 1329939184.784559 493 504 606 373 369 372
14.823366 1329939184.792996 493 504 607 373 372 372
14.865840 1329939184.801145 493 505 607 374 373 372
14.865840 1329939184.809430 492 505 608 373 372 370
14.898195 1329939184.817728 491 505 610 374 373 372
14.898195 1329939184.826049 492 504 612 375 373 370
14.939969 1329939184.836388 491 505 615 377 371 370
14.939969 1329939184.842836 491 508 616 380 367 369
14.981986 1329939184.851401 491 506 618 381 361 369
14.981986 1329939184.875185 491 503 617 378 352 369
15.023013 1329939184.877885 491 503 616 377 341 371
15.023013 1329939184.884583 490 505 614 374 333 370
15.064203 1329939184.893297 490 504 609 373 324 370
15.064203 1329939184.901651 489 503 604 368 315 370
15.098283 1329939184.909678 488 504 597 365 306 370
15.098283 1329939184.918099 487 504 589 362 299 370
15.146525 1329939184.926311 485 502 579 362 292 372
15.146525 1329939184.934605 484 503 569 364 288 374
15.181391 1329939184.942944 484 503 558 366 287 374
15.181391 1329939184.951328 483 502 549 369 294 377
15.220818 1329939184.959180 478 502 541 378 315 378
15.220818 1329939184.968158 476 505 531 391 346 376
15.267542 1329939184.978156 477 510 527 401 397 374
15.267542 1329939184.984252 476 508 525 397 467 370
15.299526 1329939184.992867 480 503 549 388 569 365
15.299526 1329939185.001512 488 499 581 388 672 360
15.340050 1329939185.009408 505 500 620 383 738 358
15.340050 1329939185.022444 535 505 665 375 733 359
15.381694 1329939185.026216 549 510 704 370 654 362
15.381694 1329939185.034460 555 510 731 360 511 362
15.423281 1329939185.043029 549 505 738 353 349 361
15.423281 1329939185.051311 542 508 717 355 216 363
15.464785 1329939185.059538 534 510 683 362 131 367
15.464785 1329939185.074238 520 507 646 362 93 372
15.507047 1329939185.077015 508 505 610 354 95 377
15.507047 1329939185.084486 499 505 580 350 125 379
15.545071 1329939185.092817 489 504 555 352 161 380
15.545071 1329939185.101447 484 506 540 354 206 379
15.583734 1329939185.109597 479 506 526 361 259 378
15.583734 1329939185.124077 477 507 516 367 307 375
15.621950 1329939185.126934 477 505 509 373 351 373
15.621950 1329939185.134623 475 504 508 376 400 371
15.663785 1329939185.142885 475 504 512 378 458 371
15.663785 1329939185.151440 484 504 521 380 515 373
15.705898 1329939185.159468 491 507 538 386 575 377
15.705898 1329939185.167798 504 509 561 392 635 379
15.738858 1329939185.176231 514 509 589 397 687 382
15.738858 1329939185.184595 534 514 629 399 719 376
15.788869 1329939185.192795 549 510 683 387 731 377
15.788869 1329939185.201161 573 504 729 376 684 373
15.847937 1329939185.209498 584 511 746 379 553 371
15.847937 1329939185.218006 578 516 746 381 373 371
15.859771 1329939185.226116 564 508 730 365 217 367
15.859771 1329939185.234268 554 506 695 353 113 363
15.899164 1329939185.242580 543 508 655 352 59 362
15.899164 1329939185.251296 526 508 623 356 54 362
15.947556 1329939185.259373 509 504 601 351 85 366
15.947556 1329939185.272331 489 505 590 350 137 372
15.980207 1329939185.275736 448 513 589 349 192 373
15.980207 1329939185.284483 426 520 594 353 242 364
16.022044 1329939185.292520 418 518 599 359 279 359
16.022044 1329939185.300818 416 518 609 361 294 357
16.063842 1329939185.309217 415 513 619 359 293 357
16.063842 1329939185.326061 417 515 622 361 281 357
16.097271 1329939185.340332 425 518 616 362 261 354
16.097271 1329939185.343334 432 513 601 369 234 352
16.138227 1329939185.351389 438 509 581 375 203 348
16.138227 1329939185.359565 438 505 565 380 182 347
16.180154 1329939185.367831 433 503 549 398 171 347
16.180154 1329939185.376340 429 503 538 415 162 347
16.220993 1329939185.390119 431 507 528 438 156 347
16.220993 1329939185.392880 436 514 513 450 162 346
16.268326 1329939185.401790 442 510 496 448 184 352
16.268326 1329939185.409534 452 505 473 425 224 363
16.304035 1329939185.417909 456 492 470 388 294 351
16.304035 1329939185.426111 454 489 491 376 416 341
16.337151 1329939185.434598 477 504 529 375 556 340
16.337151 1329939185.445397 495 515 560 351 658 334
16.389823 1329939185.451770 526 510 589 330 698 329
16.389823 1329939185.459809 543 500 617 329 697 330
16.420741 1329939185.467842 551 504 637 355 638 336
16.420741 1329939185.476301 546 510 639 391 526 344
16.462228 1329939185.487984 534 512 636 410 409 352
16.462228 1329939185.492625 517 506 628 408 327 358
16.498621 1329939185.501189 517 497 612 404 275 363
16.498621 1329939185.509321 504 492 597 405 251 369
16.537117 1329939185.517637 484 491 583 404 250 374
16.537117 1329939185.526013 471 497 572 401 268 378
16.582389 1329939185.534344 460 498 564 389 297 378
16.582389 1329939185.542484 454 488 562 376 332 378
16.624460 1329939185.551009 449 481 563 368 366 371
16.624460 1329939185.559286 448 487 560 365 392 366
16.662560 1329939185.567742 443 493 559 368 409 373
16.662560 1329939185.575928 439 495 559 370 415 380
16.704263 1329939185.584134 444 490 562 367 421 381
16.704263 1329939185.592413 439 490 560 358 424 377
16.737597 1329939185.600853 431 496 562 358 422 370
16.737597 1329939185.609024 428 496 564 367 415 371
16.779210 1329939185.617407 437 490 568 368 412 379
16.779210 1329939185.625704 434 487 569 363 412 382
16.821081 1329939185.634083 438 493 572 358 410 373
16.821081 1329939185.653326 432 496 572 360 410 370
16.862502 1329939185.659260 433 491 575 363 406 378
16.862502 1329939185.667415 436 490 580 363 409 388
16.904844 1329939185.675578 435 492 581 359 412 392
16.904844 1329939185.684238 438 496 583 354 416 390
16.937855 1329939185.691973 439 495 581 349 418 388
16.937855 1329939185.707275 445 494 580 353 417 389
16.979670 1329939185.719366 446 497 579 364 417 388
16.979670 1329939185.727239 448 503 587 372 423 386
17.021087 1329939185.740119 446 505 592 370 430 382
17.021087 1329939185.742927 448 509 591 365 429 378
17.057662 1329939185.750308 452 504 590 368 427 375
17.057662 1329939185.759036 454 499 595 375 427 372
17.104384 1329939185.773313 456 498 596 373 433 369
17.104384 1329939185.775891 460 499 593 364 437 372
17.137914 1329939185.783730 462 502 598 358 441 376
17.137914 1329939185.792172 463 507 601 364 445 380
17.179314 1329939185.800551 463 509 599 377 442 379
17.179314 1329939185.808596 472 507 598 379 435 381
17.221550 1329939185.817176 476 503 602 368 430 384
17.221550 1329939185.825298 472 500 608 364 427 384
17.262920 1329939185.833820 474 500 612 374 424 379
17.262920 1329939185.842534 479 506 613 383 419 378
17.304394 1329939185.850576 483 506 611 381 411 373
17.304394 1329939185.858714 482 501 611 375 401 372
17.345011 1329939185.867215 481 500 615 374 395 372
17.345011 1329939185.885689 480 500 616 377 390 370
17.390574 1329939185.892229 483 502 617 378 385 371
17.390574 1329939185.900425 481 503 616 376 383 371
17.420721 1329939185.908594 480 502 613 373 382 372
17.420721 1329939185.917010 481 500 611 372 382 371
17.462278 1329939185.925499 481 501 613 370 381 372
17.462278 1329939185.933695 482 505 610 370 380 374
17.503933 1329939185.941891 484 505 609 371 377 373
17.503933 1329939185.950694 482 503 608 374 374 372
17.538770 1329939185.958568 481 503 607 376 372 373
17.538770 1329939185.967054 482 503 603 375 372 374
17.579101 1329939185.977121 481 505 601 375 370 376
17.579101 1329939185.992198 483 506 600 376 373 374
17.620890 1329939186.015551 481 506 600 375 377 374
17.620890 1329939186.018222 481 504 601 373 380 374
17.663200 1329939186.025455 482 504 601 374 380 372
17.663200 1329939186.033420 482 506 599 379 375 371
17.704286 1329939186.041977 482 505 598 382 371 371
17.704286 1329939186.050196 482 505 600 380 372 371
17.736846 1329939186.063633 482 504 602 377 376 371
17.736846 1329939186.066884 482 504 602 377 378 371
17.778741 1329939186.075386 482 502 601 379 379 371
17.778741 1329939186.083533 481 503 602 380 381 371
17.820615 1329939186.091872 484 503 601 378 383 374
17.820615 1329939186.100321 485 504 601 375 381 374
17.862097 1329939186.108430 483 505 600 375 381 374
17.862097 1329939186.116768 483 502 602 374 381 373
17.917335 1329939186.125248 481 503 601 376 384 375
17.917335 1329939186.133441 483 501 600 375 384 373
17.937015 1329939186.141525 483 501 600 376 380 374
17.937015 1329939186.150117 483 501 601 377 377 374
17.982100 1329939186.158402 482 500 602 378 377 373
17.982100 1329939186.166634 484 501 603 376 381 375
18.022136 1329939186.175088 487 505 605 372 386 374
18.022136 1329939186.183256 488 505 605 370 385 373
18.068301 1329939186.191844 486 501 605 371 381 372
18.068301 1329939186.199997 487 501 610 371 378 372
18.103825 1329939186.214050 489 505 611 375 378 371
18.103825 1329939186.216544 490 506 610 377 376 372
18.138097 1329939186.225226 488 503 606 375 372 370
18.138097 1329939186.233200 487 501 605 374 368 371
18.178982 1329939186.241583 486 502 608 374 368 372
18.178982 1329939186.250076 486 504 609 370 372 371
18.224841 1329939186.258425 489 502 606 369 368 370
18.224841 1329939186.266560 488 501 603 368 363 370
18.276754 1329939186.275184 488 503 601 366 362 371
18.276754 1329939186.283600 488 506 598 367 360 371
18.303215 1329939186.291392 488 505 592 367 359 371
18.303215 1329939186.300078 487 503 583 368 355 374
18.344717 1329939186.308507 485 503 575 367 352 374
18.344717 1329939186.316500 486 504 566 368 353 374
18.378148 1329939186.325294 485 504 557 366 356 377
18.378148 1329939186.333600 483 502 550 367 367 379
18.423848 1329939186.341390 485 501 547 370 387 379
18.423848 1329939186.350111 485 505 548 378 421 381
18.471142 1329939186.358358 485 509 545 387 461 381
18.471142 1329939186.366589 492 503 548 390 513 383
18.517934 1329939186.375224 500 502 565 386 577 380
18.517934 1329939186.383122 515 501 595 382 641 377
18.544749 1329939186.391036 537 502 634 380 675 376
18.544749 1329939186.399932 553 508 675 382 655 375
18.578113 1329939186.408162 569 513 708 381 582 373
18.578113 1329939186.416341 569 513 727 378 465 369
18.627270 1329939186.424650 560 509 726 379 335 363
18.627270 1329939186.433185 553 507 708 383 235 359
18.663259 1329939186.441239 544 508 684 382 180 358
18.663259 1329939186.449896 531 506 655 376 157 360
18.703042 1329939186.458360 516 503 626 366 164 365
18.703042 1329939186.466235 510 504 602 357 184 370
18.737981 1329939186.474973 507 503 581 352 206 373
18.737981 1329939186.483247 502 502 564 350 223 378
18.777776 1329939186.491556 498 499 548 347 237 378
18.777776 1329939186.502914 494 499 534 351 254 378
18.821931 1329939186.508548 488 501 520 357 283 380
18.821931 1329939186.516270 482 500 505 363 320 378
18.869580 1329939186.525012 481 501 494 375 365 377
18.869580 1329939186.533187 481 504 498 388 433 375
18.906815 1329939186.541502 490 509 513 408 523 373
18.906815 1329939186.552294 500 506 540 417 613 376
18.941080 1329939186.558323 517 504 590 418 686 375
18.941080 1329939186.566558 537 499 647 414 715 372
18.985720 1329939186.574674 561 501 700 401 675 369
18.985720 1329939186.583480 573 501 745 390 572 368
19.018846 1329939186.591330 564 503 775 388 442 365
19.018846 1329939186.600083 551 507 779 391 307 362
19.060728 1329939186.608322 537 510 763 392 197 359
19.060728 1329939186.616349 523 506 736 384 123 358
19.102247 1329939186.624611 506 501 708 370 91 364
19.102247 1329939186.633566 494 501 679 360 88 371
19.146757 1329939186.641639 492 500 654 355 92 374
19.146757 1329939186.649983 482 492 639 351 96 377
19.185753 1329939186.658517 474 497 620 356 95 376
19.185753 1329939186.666222 472 504 601 363 84 370
19.218844 1329939186.674527 466 497 590 364 88 368
19.218844 1329939186.683446 450 500 579 367 103 364
19.260528 1329939186.691284 445 505 567 372 119 358
19.260528 1329939186.699665 444 504 555 377 130 358
19.302521 1329939186.720951 436 500 543 376 146 362
19.302521 1329939186.744151 429 497 530 377 161 362
19.345802 1329939186.758315 433 494 517 380 172 362
19.345802 1329939186.761344 433 493 502 383 183 364
19.384107 1329939186.766412 437 497 486 386 199 371
19.384107 1329939186.774609 440 504 463 397 220 373
19.417019 1329939186.782898 445 494 433 411 254 381
19.417019 1329939186.790904 460 497 437 408 350 384
19.458658 1329939186.799035 464 498 453 394 520 377
19.458658 1329939186.807587 488 498 482 391 651 377
19.500104 1329939186.816251 511 494 519 377 709 369
19.500104 1329939186.824093 543 497 564 359 722 360
19.554014 1329939186.832748 543 511 596 344 705 353
19.554014 1329939186.840880 551 509 619 341 643 349
19.578150 1329939186.849277 548 501 632 347 546 347
19.578150 1329939186.857580 529 502 635 367 444 355
19.616998 1329939186.866279 515 510 624 391 360 363
19.616998 1329939186.874460 504 516 604 408 302 371
19.668787 1329939186.882841 493 514 588 408 269 374
19.668787 1329939186.892642 478 506 578 396 257 380
19.700546 1329939186.899478 464 500 570 383 264 385
19.700546 1329939186.907577 455 500 563 378 277 383
19.742253 1329939186.916362 452 499 558 379 299 378
19.742253 1329939186.924558 442 498 558 379 328 377
19.779626 1329939186.932776 432 501 557 376 355 376
19.779626 1329939186.940999 430 503 557 376 376 373
19.817461 1329939186.949467 425 498 558 380 393 372
19.817461 1329939186.957773 427 495 558 382 402 373
19.859360 1329939186.965913 430 491 555 375 408 375
19.859360 1329939186.976550 435 494 556 363 410 377
19.900968 1329939186.983165 426 503 561 355 413 379
19.900968 1329939186.994448 416 511 562 367 415 377
19.943240 1329939186.999505 421 510 564 381 420 378
19.943240 1329939187.007583 425 503 567 387 428 380
19.976948 1329939187.015957 428 498 572 385 440 381
19.976948 1329939187.024388 429 496 575 387 445 376
20.018254 1329939187.032582 432 491 576 394 447 374
20.018254 1329939187.040497 436 490 575 399 446 372
20.060027 1329939187.050774 437 497 576 399 444 369
20.060027 1329939187.057464 437 502 577 392 446 366
20.101279 1329939187.065533 440 502 579 386 448 362
20.101279 1329939187.074296 442 494 582 384 450 360
20.143324 1329939187.082886 445 490 586 382 455 359
20.143324 1329939187.091013 448 491 590 371 458 363
20.184667 1329939187.101499 454 495 592 358 459 365
20.184667 1329939187.124942 458 501 594 359 456 367
20.218160 1329939187.132617 460 502 600 363 453 365
20.218160 1329939187.140530 463 501 602 365 447 366
20.260412 1329939187.149209 466 501 601 363 440 365
20.260412 1329939187.157198 469 500 601 368 430 364
20.302059 1329939187.165643 469 501 604 373 427 363
20.302059 1329939187.182905 473 497 608 374 432 360
20.354303 1329939187.190025 474 493 610 370 441 360
20.354303 1329939187.198376 474 496 612 373 444 360
20.378133 1329939187.206919 475 497 614 373 446 361
20.378133 1329939187.215140 478 498 616 372 448 362
20.418415 1329939187.223316 482 496 618 366 448 365
20.418415 1329939187.232981 485 496 618 361 440 368
20.459679 1329939187.239676 487 499 615 361 425 368
20.459679 1329939187.248215 487 501 612 362 408 367
20.501285 1329939187.256317 489 501 613 357 401 365
20.501285 1329939187.264649 489 499 613 354 398 365
20.542828 1329939187.272742 490 500 611 356 397 367
20.542828 1329939187.281419 490 504 610 362 395 367
20.577342 1329939187.289342 492 506 611 366 397 368
20.577342 1329939187.297579 490 503 614 367 404 369
20.617744 1329939187.306109 493 502 613 367 402 367
20.617744 1329939187.314297 494 503 611 370 394 367
20.659054 1329939187.322609 496 503 610 370 385 367
20.659054 1329939187.332583 495 503 611 371 384 368
20.701260 1329939187.345200 495 502 611 371 387 369
20.701260 1329939187.347394 497 501 609 369 384 368
20.742853 1329939187.356242 497 504 607 368 377 369
20.742853 1329939187.379784 497 505 606 370 372 369
20.784045 1329939187.381188 497 505 605 373 372 370
20.784045 1329939187.389289 497 502 604 373 374 370
20.825858 1329939187.407825 497 502 604 370 377 370
20.825858 1329939187.420323 497 504 603 368 377 372
20.869556 1329939187.423065 496 505 602 370 378 371
20.869556 1329939187.431321 497 504 602 374 378 372
20.901073 1329939187.439757 496 503 605 376 379 372
20.901073 1329939187.448376 496 504 606 375 381 371
20.942427 1329939187.456478 496 504 605 374 379 372
20.942427 1329939187.464674 496 503 606 375 378 371
20.982836 1329939187.473482 496 502 606 374 376 372
20.982836 1329939187.481802 496 502 607 374 377 370
21.017654 1329939187.489366 496 503 607 376 376 372
21.017654 1329939187.498396 496 502 606 376 375 373
21.059487 1329939187.506502 496 503 606 375 374 373
21.059487 1329939187.514570 496 504 606 374 375 373
21.100945 1329939187.523233 496 504 605 372 377 372
21.100945 1329939187.531654 496 504 605 373 376 372
21.142513 1329939187.539371 497 503 606 374 374 373
21.142513 1329939187.548181 498 504 605 375 374 372
21.190064 1329939187.556371 496 506 605 377 374 371
21.190064 1329939187.564702 497 505 604 377 373 371
21.217236 1329939187.572917 497 502 604 374 373 370
21.217236 1329939187.581295 496 502 604 373 373 370
21.259078 1329939187.589379 497 503 603 372 372 370
21.259078 1329939187.597880 497 504 602 371 371 370
21.308630 1329939187.606007 497 503 603 370 371 371
21.308630 1329939187.614035 496 504 603 370 372 373
21.342468 1329939187.631352 496 504 603 373 375 374
21.342468 1329939187.633148 497 504 604 374 377 374
21.384186 1329939187.639702 497 503 604 373 377 374
21.384186 1329939187.648028 497 503 603 373 375 373
21.417225 1329939187.656437 496 503 605 374 376 372
21.417225 1329939187.664562 496 504 605 373 379 372
21.458985 1329939187.673048 498 504 605 371 377 371
21.458985 1329939187.681705 498 503 606 370 377 370
21.502358 1329939187.689516 497 504 605 369 375 372
21.502358 1329939187.698033 498 504 604 371 372 371
21.542335 1329939187.706143 497 505 604 374 370 373
21.542335 1329939187.717050 496 504 606 373 370 373
21.586817 1329939187.723114 495 505 606 373 372 374
21.586817 1329939187.735035 495 507 607 373 373 373
21.617162 1329939187.739854 494 506 610 375 372 370
21.617162 1329939187.748394 493 507 612 378 371 369
21.658811 1329939187.756280 493 508 615 380 368 368
21.658811 1329939187.764958 493 506 617 384 366 366
21.700312 1329939187.772921 492 505 620 385 356 364
21.700312 1329939187.785428 491 504 623 384 346 363
21.742094 1329939187.799699 490 503 628 382 337 363
21.742094 1329939187.806809 489 504 628 377 329 362
21.783717 1329939187.815202 489 504 625 374 318 362
21.783717 1329939187.823433 488 502 622 369 303 362
21.825435 1329939187.831387 488 502 617 363 290 363
21.825435 1329939187.839975 486 503 611 358 278 362
21.858645 1329939187.850376 485 503 601 355 269 364
21.858645 1329939187.856932 485 502 588 356 258 366
21.900857 1329939187.865511 486 500 574 357 252 370
21.900857 1329939187.873880 488 501 560 358 254 372
21.941590 1329939187.882307 483 500 546 360 263 377
21.941590 1329939187.890331 478 499 529 370 283 376
21.986321 1329939187.904490 477 504 514 386 310 373
21.986321 1329939187.907996 475 507 502 407 352 370
22.032763 1329939187.915488 475 508 495 423 417 368
22.032763 1329939187.923508 477 506 496 425 501 365
22.058482 1329939187.931955 482 501 507 416 592 363
22.058482 1329939187.940076 498 494 534 396 666 361
22.100092 1329939187.948505 508 494 589 380 717 364
22.100092 1329939187.958033 519 498 645 361 718 363
22.137626 1329939187.965467 542 501 695 344 648 361
22.137626 1329939187.973699 541 503 746 335 534 361
22.190487 1329939187.982066 537 511 773 346 414 363
22.190487 1329939187.990462 537 517 763 368 300 366
22.224613 1329939187.998372 524 512 738 377 211 368
22.224613 1329939188.012605 508 505 701 372 161 372
22.257941 1329939188.015170 498 502 657 359 142 375
22.257941 1329939188.023719 495 503 616 350 145 377
22.302190 1329939188.031856 494 501 580 344 162 379
22.302190 1329939188.039587 489 501 550 343 179 378
22.341474 1329939188.048370 484 501 530 345 207 377
22.341474 1329939188.057120 482 502 514 350 247 374
22.382512 1329939188.066468 479 503 501 358 295 371
22.382512 1329939188.073452 478 502 493 366 345 367
22.416437 1329939188.081907 478 501 491 371 398 366
22.416437 1329939188.089804 480 500 499 374 451 368
22.457717 1329939188.098281 485 504 514 387 504 370
22.457717 1329939188.106626 491 511 528 400 551 373
22.499637 1329939188.115862 502 511 541 407 590 374
22.499637 1329939188.123729 514 499 575 410 636 374
22.541509 1329939188.131741 513 492 635 418 685 380
22.541509 1329939188.139620 523 510 692 432 689 381
22.582532 1329939188.148044 547 517 739 419 621 373
22.582532 1329939188.156860 555 493 768 390 496 367
22.625949 1329939188.164497 546 487 767 368 361 364
22.625949 1329939188.173462 539 502 738 356 235 361
22.657680 1329939188.182003 519 506 706 348 157 361
22.657680 1329939188.189809 501 504 667 340 137 367
22.698771 1329939188.198405 493 504 633 327 173 375
22.698771 1329939188.206709 477 498 620 317 236 386
22.740801 1329939188.214988 454 507 620 326 281 390
22.740801 1329939188.223516 449 523 623 343 287 378
22.782200 1329939188.231818 455 530 634 357 272 369
22.782200 1329939188.239735 442 524 647 369 235 358
22.823983 1329939188.248402 440 523 651 382 177 346
22.823983 1329939188.257039 443 520 650 394 123 337
22.861328 1329939188.264820 439 512 644 397 81 335
22.861328 1329939188.273365 441 503 623 393 51 334
22.899426 1329939188.281992 448 499 597 392 33 335
22.899426 1329939188.289500 450 500 569 393 33 338
22.939809 1329939188.298148 452 503 535 402 40 336
22.939809 1329939188.306825 457 502 497 414 46 338
22.981149 1329939188.318090 456 490 458 419 72 344
22.981149 1329939188.323311 442 486 428 423 125 350
23.022152 1329939188.331799 447 497 418 431 207 347
23.022152 1329939188.339636 455 503 407 440 306 352
23.063501 1329939188.348097 456 500 401 438 407 362
23.063501 1329939188.356910 462 494 416 423 516 369
23.096977 1329939188.373336 487 494 457 400 632 371
23.096977 1329939188.381773 512 490 517 374 724 369
23.139052 1329939188.390042 524 483 567 347 769 360
23.139052 1329939188.397702 549 489 597 322 762 345
23.180289 1329939188.406327 565 495 641 302 730 342
23.180289 1329939188.415186 552 500 684 327 663 347
23.222267 1329939188.422972 544 509 695 385 538 350
23.222267 1329939188.431687 539 510 678 422 385 363
23.263950 1329939188.439825 522 511 650 424 259 372
23.263950 1329939188.447993 507 509 619 415 189 377
23.297109 1329939188.456254 491 497 593 398 165 383
23.297109 1329939188.464970 472 489 574 383 174 391
23.338864 1329939188.477189 457 492 557 375 209 396
23.338864 1329939188.481657 442 497 542 368 252 395
23.389556 1329939188.489895 438 498 531 358 294 389
23.389556 1329939188.497697 434 488 527 352 338 384
23.422654 1329939188.506270 425 487 527 349 376 388
23.422654 1329939188.514894 422 495 528 345 404 385
23.470531 1329939188.523177 432 502 532 347 422 380
23.470531 1329939188.531336 426 496 537 355 436 378
23.497433 1329939188.540037 417 493 540 364 446 378
23.497433 1329939188.547448 419 494 545 366 451 377
23.539424 1329939188.556245 422 496 548 364 456 372
23.539424 1329939188.575931 426 499 552 360 460 367
23.581077 1329939188.581411 428 499 553 362 464 368
23.581077 1329939188.589849 429 493 558 367 468 376
23.638865 1329939188.598114 431 490 562 367 473 378
23.638865 1329939188.606199 430 494 565 364 476 379
23.665010 1329939188.614409 435 503 564 361 473 378
23.665010 1329939188.630696 439 508 563 360 468 381
23.704003 1329939188.642745 441 505 567 364 466 382
23.704003 1329939188.648941 443 501 575 368 469 380
23.739599 1329939188.656563 448 501 584 372 475 379
23.739599 1329939188.664200 449 503 590 379 480 379
23.781143 1329939188.672666 451 505 593 391 480 379
23.781143 1329939188.681322 453 504 597 406 472 376
23.823117 1329939188.697158 459 502 603 409 466 371
23.823117 1329939188.700145 462 497 608 402 465 367
23.876703 1329939188.706368 465 491 610 388 462 366
23.876703 1329939188.714054 470 491 610 382 451 368
23.898143 1329939188.722534 473 497 615 380 445 371
23.898143 1329939188.731417 475 504 619 377 449 373
23.939763 1329939188.739410 475 499 621 365 452 374
23.939763 1329939188.747859 480 493 622 355 449 378
23.981193 1329939188.756279 482 496 622 359 443 379
23.981193 1329939188.764558 481 504 620 370 435 377
24.026264 1329939188.772812 487 511 620 375 428 372
24.026264 1329939188.781415 489 504 620 369 421 367
24.064166 1329939188.789396 491 495 621 363 415 362
24.064166 1329939188.804782 492 499 621 368 408 362
24.097507 1329939188.808099 493 506 620 375 403 363
24.097507 1329939188.814506 495 508 616 379 399 364
24.139582 1329939188.822807 494 502 614 375 396 366
24.139582 1329939188.831366 493 499 613 371 391 368
24.191674 1329939188.839259 495 501 612 368 389 370
24.191674 1329939188.847541 496 501 612 371 389 371
24.222102 1329939188.856396 497 503 611 374 390 372
24.222102 1329939188.864147 497 503 609 373 389 372
24.264308 1329939188.872537 497 502 608 369 386 372
24.264308 1329939188.881064 498 502 607 369 384 372
24.309446 1329939188.889516 498 503 607 370 383 373
24.309446 1329939188.897875 497 504 607 374 385 374
24.339218 1329939188.912826 498 502 608 376 386 372
24.339218 1329939188.917175 500 502 609 373 385 371
24.381202 1329939188.922395 499 503 609 371 384 370
24.381202 1329939188.931082 498 503 606 373 378 369
24.422388 1329939188.939438 499 502 605 372 376 368
24.422388 1329939188.947752 498 500 604 372 378 368
24.463707 1329939188.956009 499 499 605 369 380 368
24.463707 1329939188.963979 499 503 604 370 382 369
24.504056 1329939188.972388 499 505 604 371 383 370
24.504056 1329939188.981045 500 503 604 371 383 371
24.538713 1329939188.989603 500 502 605 371 383 371
24.538713 1329939188.997451 501 503 605 373 381 371
24.580630 1329939189.005924 502 503 606 374 379 370
24.580630 1329939189.014053 501 505 607 375 376 369
24.634459 1329939189.022442 501 504 606 374 374 368
24.634459 1329939189.030892 502 503 606 374 372 368
24.658445 1329939189.038986 501 503 607 374 373 367
24.658445 1329939189.047576 501 503 606 376 375 369
24.697340 1329939189.056098 501 503 606 378 375 367
24.697340 1329939189.071081 501 503 607 376 374 368
24.738774 1329939189.074227 502 503 607 375 375 368
24.738774 1329939189.081142 501 504 608 373 373 370
24.780448 1329939189.089044 500 504 610 371 370 368
24.780448 1329939189.097434 499 502 611 372 368 368
24.816936 1329939189.106011 500 503 614 372 363 369
24.816936 1329939189.114006 498 505 617 371 355 369
24.863774 1329939189.122618 497 506 620 372 341 368
24.863774 1329939189.130784 496 505 626 372 325 368
24.897214 1329939189.139283 496 502 631 373 304 367
24.897214 1329939189.147477 494 501 634 369 288 367
24.938405 1329939189.156079 489 502 634 364 279 368
24.938405 1329939189.163646 487 503 626 359 271 367
24.979855 1329939189.180740 488 504 615 359 262 368
24.979855 1329939189.183810 487 504 601 361 256 370
25.021831 1329939189.189091 485 504 587 364 255 373
25.021831 1329939189.197342 484 503 571 369 263 374
25.063271 1329939189.205913 481 502 556 375 276 372
25.063271 1329939189.213803 481 503 543 383 292 369
25.105255 1329939189.222363 480 504 529 394 316 368
25.105255 1329939189.230900 478 504 516 404 347 365
25.137935 1329939189.239023 479 504 505 412 381 364
25.137935 1329939189.247688 479 504 498 414 426 362
25.182440 1329939189.256057 481 502 506 404 493 364
25.182440 1329939189.263542 480 497 527 390 577 362
25.221464 1329939189.274734 493 491 560 381 654 357
25.221464 1329939189.280806 509 500 609 380 702 353
25.269147 1329939189.288760 525 502 666 373 704 346
25.269147 1329939189.297357 544 494 716 366 639 342
25.306875 1329939189.305854 548 493 755 364 521 346
25.306875 1329939189.313450 546 500 768 367 386 350
25.341522 1329939189.330231 539 503 747 369 265 356
25.341522 1329939189.336135 527 501 708 368 181 363
25.392778 1329939189.350317 514 496 666 361 140 372
25.392778 1329939189.372313 502 495 625 351 139 380
25.424386 1329939189.375227 494 494 593 342 162 386
25.424386 1329939189.380455 489 494 566 335 191 387
25.463018 1329939189.389020 483 497 547 333 215 385
25.463018 1329939189.397438 482 498 533 335 240 386
25.499099 1329939189.405556 477 502 521 341 267 384
25.499099 1329939189.414038 476 503 511 352 302 382
25.538990 1329939189.422289 475 507 499 366 340 378
25.538990 1329939189.430261 476 511 490 377 386 377
25.579088 1329939189.438983 479 512 494 379 448 378
25.579088 1329939189.447299 480 512 507 388 522 379
25.621283 1329939189.459907 489 514 528 400 594 377
25.621283 1329939189.463617 509 511 573 403 664 375
25.662544 1329939189.472366 518 508 640 407 719 376
25.662544 1329939189.480216 536 509 699 424 711 371
25.704033 1329939189.488726 564 510 741 429 631 363
25.704033 1329939189.497079 569 491 762 398 498 362
25.737812 1329939189.514741 559 488 760 371 352 362
25.737812 1329939189.529695 546 503 735 362 237 362
25.779416 1329939189.532631 529 506 702 359 167 365
25.779416 1329939189.538443 507 500 669 350 145 370
25.821008 1329939189.546843 494 497 642 339 152 377
25.821008 1329939189.555971 478 500 627 339 178 385
25.862421 1329939189.563442 455 507 615 346 194 389
25.862421 1329939189.579363 448 515 615 357 195 380
25.908022 1329939189.582371 436 518 617 362 181 373
25.908022 1329939189.588739 429 516 612 366 148 364
25.937306 1329939189.597048 420 515 605 368 112 356
25.937306 1329939189.605534 415 517 598 367 91 350
25.979284 1329939189.613295 416 514 592 363 94 344
25.979284 1329939189.621792 422 512 574 362 91 339
26.020603 1329939189.632156 432 512 554 365 83 335
26.020603 1329939189.638491 442 506 532 367 85 334
26.063528 1329939189.647038 444 499 511 375 103 334
26.063528 1329939189.655054 444 495 492 393 138 332
26.103157 1329939189.663550 449 496 472 416 180 330
26.103157 1329939189.683008 450 497 452 432 237 336
26.147846 1329939189.688797 455 503 434 443 312 346
26.147846 1329939189.696857 452 499 425 433 410 349
26.177944 1329939189.705523 464 486 446 422 535 353
26.177944 1329939189.713440 483 474 489 420 663 357
26.219365 1329939189.721510 515 485 536 400 752 361
26.219365 1329939189.730746 534 492 585 366 783 361
26.261472 1329939189.738607 549 485 625 350 761 356
26.261472 1329939189.746202 555 486 652 347 688 353
26.298795 1329939189.754936 553 494 664 358 564 357
26.298795 1329939189.763639 543 503 661 371 429 365
26.344329 1329939189.771416 525 504 643 384 323 371
26.344329 1329939189.788343 513 505 615 386 254 375
26.377652 1329939189.800320 499 500 593 379 220 379
26.377652 1329939189.806169 477 494 578 373 224 388
26.419656 1329939189.813499 461 495 566 363 249 392
26.419656 1329939189.822039 454 493 558 359 285 393
26.461314 1329939189.829919 444 490 554 360 324 391
26.461314 1329939189.838711 430 492 552 358 359 385
26.503391 1329939189.846639 430 498 551 359 382 375
26.503391 1329939189.854835 432 501 551 362 400 372
26.538231 1329939189.863660 434 495 554 361 412 375
26.538231 1329939189.872018 434 488 555 357 420 377
26.577708 1329939189.880106 430 490 556 350 421 377
26.577708 1329939189.888458 428 500 560 345 430 371
26.635965 1329939189.896848 431 506 564 353 441 371
26.635965 1329939189.904792 435 506 562 363 442 372
26.661950 1329939189.913430 442 504 566 369 439 370
26.661950 1329939189.924293 432 503 574 366 436 367
26.697528 1329939189.929843 436 503 576 365 430 363
26.697528 1329939189.938581 444 505 573 361 418 362
26.747044 1329939189.948156 448 504 571 364 405 368
26.747044 1329939189.954995 443 502 571 369 396 371
26.781953 1329939189.963366 434 502 574 379 402 372
26.781953 1329939189.972137 427 502 577 382 421 372
26.826333 1329939189.979587 430 500 578 379 446 372
26.826333 1329939189.988828 437 500 583 376 467 372
26.865598 1329939189.999359 444 502 589 373 481 374
26.865598 1329939190.005007 451 505 595 372 486 376
26.902928 1329939190.013271 457 506 602 370 482 374
26.902928 1329939190.023716 460 504 608 366 475 373
26.945031 1329939190.029634 463 503 610 364 466 371
26.945031 1329939190.038358 466 502 613 368 452 372
26.978243 1329939190.047444 468 504 614 377 436 373
26.978243 1329939190.055028 469 503 615 384 424 372
27.027791 1329939190.063135 471 503 615 381 415 371
27.027791 1329939190.071836 470 498 612 373 408 371
27.062066 1329939190.079429 473 499 608 371 398 371
27.062066 1329939190.088433 472 502 607 369 395 371
27.102939 1329939190.096687 474 503 607 365 396 373
27.102939 1329939190.104956 474 502 607 364 399 374
27.144595 1329939190.113058 476 502 605 363 399 374
27.144595 1329939190.121418 476 501 604 365 401 373
27.178094 1329939190.129144 478 505 608 362 408 373
27.178094 1329939190.137675 480 504 610 364 411 373
27.219714 1329939190.146171 483 506 610 371 410 370
27.219714 1329939190.163407 484 507 610 379 406 367
27.266024 1329939190.196138 485 507 610 380 404 367
27.266024 1329939190.208087 487 507 611 379 404 368
27.302674 1329939190.213612 487 504 612 377 401 368
27.302674 1329939190.220983 489 502 611 375 394 368
27.336621 1329939190.229865 489 504 611 375 388 366
27.336621 1329939190.237551 489 505 610 377 384 368
27.378091 1329939190.249383 489 504 609 375 382 369
27.378091 1329939190.254637 490 503 607 373 381 370
27.419277 1329939190.262645 489 502 607 372 380 370
27.419277 1329939190.270640 490 505 605 370 381 371
27.460668 1329939190.279442 490 505 602 369 381 371
27.460668 1329939190.287691 490 504 605 370 383 373
27.502359 1329939190.295351 491 504 605 371 384 372
27.502359 1329939190.304042 491 505 604 374 381 372
27.544185 1329939190.311886 492 504 603 372 378 372
27.544185 1329939190.320204 492 504 604 371 378 370
27.578649 1329939190.328805 492 505 604 373 378 370
27.578649 1329939190.336770 492 504 603 373 378 370
27.619171 1329939190.346073 493 504 602 373 375 371
27.619171 1329939190.353650 492 505 602 372 375 371
27.660775 1329939190.361195 492 506 603 371 376 372
27.660775 1329939190.369522 492 506 604 370 378 372
27.702090 1329939190.377988 491 505 604 369 379 372
27.702090 1329939190.385936 493 506 605 370 379 372
27.743791 1329939190.397767 492 506 604 371 378 371
27.743791 1329939190.403490 493 506 605 372 376 371
27.785460 1329939190.411051 492 507 607 370 376 371
27.785460 1329939190.419336 491 505 606 371 375 371
27.822506 1329939190.427981 491 506 606 372 374 372
27.822506 1329939190.435741 490 507 607 375 372 371
27.869867 1329939190.444562 490 506 607 374 372 371
27.869867 1329939190.452686 490 506 609 373 372 371
27.914569 1329939190.460934 488 507 611 370 372 370
27.914569 1329939190.469202 487 508 616 370 372 369
27.943814 1329939190.477784 487 507 622 370 369 368
27.943814 1329939190.485623 487 507 626 372 364 367
27.977091 1329939190.494643 489 508 629 375 350 367
27.977091 1329939190.514928 489 509 631 375 336 364
28.018557 1329939190.519347 489 506 628 374 319 365
28.018557 1329939190.527589 490 505 620 371 301 365
28.059936 1329939190.536308 489 505 608 367 284 365
28.059936 1329939190.544203 488 504 594 366 270 368
28.102134 1329939190.554411 487 503 580 369 263 371
28.102134 1329939190.565426 485 503 564 370 265 375
28.143606 1329939190.570269 483 504 547 373 273 374
28.143606 1329939190.577763 485 503 532 379 289 374
28.177263 1329939190.586222 484 502 518 384 314 375
28.177263 1329939190.594207 481 503 505 389 347 375
28.218509 1329939190.602873 482 506 495 396 393 376
28.218509 1329939190.611164 479 506 496 393 465 375
28.267245 1329939190.619232 478 502 518 390 569 375
28.267245 1329939190.627798 490 505 561 385 683 370
28.297099 1329939190.635940 506 511 626 390 763 367
28.297099 1329939190.643996 525 508 695 394 775 359
28.343260 1329939190.652817 556 500 753 385 699 360
28.343260 1329939190.661149 569 504 780 377 535 359
28.388444 1329939190.669212 561 511 781 384 344 357
28.388444 1329939190.677748 550 510 752 389 184 356
28.418569 1329939190.685842 538 506 707 384 82 359
28.418569 1329939190.694015 520 501 660 371 33 365
28.460065 1329939190.702832 504 496 615 353 32 374
28.460065 1329939190.711038 499 497 571 335 64 381
28.497401 1329939190.731807 494 497 534 325 111 387
28.497401 1329939190.735663 482 498 505 324 167 388
28.549882 1329939190.744027 481 497 487 326 229 387
28.549882 1329939190.752440 479 502 475 329 296 385
28.596922 1329939190.760994 482 503 471 332 361 381
28.596922 1329939190.769151 485 505 475 342 422 378
28.620363 1329939190.782373 487 506 481 358 479 376
28.620363 1329939190.804210 492 510 498 381 539 376
28.659142 1329939190.814867 496 518 526 407 604 379
28.659142 1329939190.818797 507 518 552 433 668 381
28.701145 1329939190.827635 525 512 599 440 728 385
28.701145 1329939190.835987 530 504 651 434 772 389
28.743005 1329939190.844000 560 498 702 407 775 389
28.743005 1329939190.859043 583 495 744 383 719 393
28.785728 1329939190.860870 574 512 788 399 603 386
28.785728 1329939190.868832 559 532 815 425 428 370
28.818091 1329939190.877701 559 515 807 424 230 361
28.818091 1329939190.885645 542 500 786 406 81 355
28.859379 1329939190.893843 512 502 751 383 6 354
28.859379 1329939190.902230 488 498 705 360 5 359
28.908481 1329939190.920648 473 494 667 334 5 365
28.908481 1329939190.927154 465 489 637 310 6 371
28.955453 1329939190.935957 475 490 607 299 29 373
28.955453 1329939190.944235 483 492 581 298 43 373
28.979078 1329939190.956117 481 494 562 299 47 374
28.979078 1329939190.966683 479 498 549 305 54 371
29.016826 1329939190.968919 467 506 536 318 70 368
29.016826 1329939190.977315 458 512 521 334 91 363
29.058565 1329939190.985682 452 516 503 354 121 358
29.058565 1329939190.994168 444 518 486 372 158 356
29.099926 1329939191.002077 440 516 471 386 200 354
29.099926 1329939191.030916 439 513 459 398 247 353
29.140929 1329939191.036317 433 513 455 410 310 346
29.140929 1329939191.044555 441 517 462 425 385 335
29.193346 1329939191.053340 457 514 473 442 459 333
29.193346 1329939191.061248 471 503 483 453 526 336
29.224131 1329939191.069559 481 492 493 462 582 341
29.224131 1329939191.077882 497 491 517 463 635 343
29.268308 1329939191.098039 517 500 553 445 689 341
29.268308 1329939191.102797 527 498 590 407 733 343
29.299424 1329939191.111812 531 484 617 370 739 342
29.299424 1329939191.119957 539 486 632 350 675 341
29.341076 1329939191.127942 541 502 638 351 546 340
29.341076 1329939191.136643 533 509 637 363 399 345
29.382697 1329939191.155210 519 501 628 361 294 350
29.382697 1329939191.161629 503 498 611 358 239 357
29.425439 1329939191.170091 485 498 594 355 214 366
29.425439 1329939191.178407 469 493 583 350 211 380
29.457764 1329939191.186433 458 493 573 348 225 386
29.457764 1329939191.221618 447 500 561 346 246 384
29.503478 1329939191.228595 438 502 554 348 265 382
29.503478 1329939191.236238 433 498 555 350 291 381
29.541553 1329939191.245085 426 498 554 350 325 378
29.541553 1329939191.253134 419 497 545 355 350 378
29.582899 1329939191.261568 421 501 540 357 361 380
29.582899 1329939191.269718 423 503 542 356 373 382
29.624636 1329939191.283182 422 506 543 354 393 377
29.624636 1329939191.286286 418 502 543 360 411 375
29.657976 1329939191.301080 418 496 545 369 422 379
29.657976 1329939191.312627 419 496 546 372 431 381
29.704241 1329939191.330949 427 503 546 362 440 378
29.704241 1329939191.336592 432 506 550 351 449 376
29.750840 1329939191.345041 429 506 554 345 458 377
29.750840 1329939191.361356 430 504 559 351 468 381
29.783136 1329939191.366793 434 507 564 362 477 384
29.783136 1329939191.381526 440 512 569 368 486 385
29.824892 1329939191.402995 446 516 576 374 492 384
29.824892 1329939191.405929 447 514 582 381 491 380
29.858508 1329939191.411817 447 510 589 384 487 379
29.858508 1329939191.419970 447 509 597 384 481 379
29.900427 1329939191.428630 453 511 600 383 469 379
29.900427 1329939191.436777 457 513 601 381 451 380
29.941786 1329939191.444857 456 514 606 378 438 381
29.941786 1329939191.453677 455 516 611 376 436 381
29.987565 1329939191.461504 458 516 607 375 435 379
29.987565 1329939191.469853 461 514 606 371 436 379
30.025168 1329939191.478516 461 511 608 365 438 379
30.025168 1329939191.486766 465 515 608 365 440 378
30.058331 1329939191.494895 470 520 608 368 443 379
30.058331 1329939191.503093 475 518 608 372 441 377
30.099712 1329939191.511749 476 516 609 380 437 376
30.099712 1329939191.520285 478 513 612 387 432 373
30.139170 1329939191.528656 481 513 613 392 426 372
30.139170 1329939191.537071 484 512 613 396 417 368
30.183005 1329939191.545145 486 509 612 397 408 366
30.183005 1329939191.553525 486 507 614 396 405 365
30.217052 1329939191.561833 487 507 614 391 403 365
30.217052 1329939191.569907 488 507 611 387 403 368
30.259519 1329939191.590053 490 506 609 386 399 367
30.259519 1329939191.595245 490 505 610 381 398 369
30.305513 1329939191.603477 489 504 610 381 398 369
30.305513 1329939191.611614 490 505 608 377 396 372
30.341384 1329939191.620036 490 505 608 377 392 371
30.341384 1329939191.628254 489 505 608 377 389 370
30.383102 1329939191.642335 489 504 608 376 387 369
30.383102 1329939191.645268 490 505 608 375 387 369
30.425027 1329939191.660049 491 506 608 374 387 367
30.425027 1329939191.673994 491 507 609 375 388 367
30.462335 1329939191.697406 492 506 608 375 388 369
30.462335 1329939191.721165 493 506 607 376 387 368
30.498618 1329939191.744574 493 507 607 377 386 370
30.498618 1329939191.768011 495 507 605 376 385 370
30.541735 1329939191.781715 495 506 605 373 382 370
30.541735 1329939191.786296 495 505 604 372 380 370
30.582669 1329939191.794647 494 505 603 373 378 369
30.582669 1329939191.803409 495 505 602 372 377 369
30.624588 1329939191.811512 495 506 600 372 378 369
30.624588 1329939191.821570 496 507 601 373 380 369
30.657947 1329939191.828222 496 507 602 376 384 368
30.657947 1329939191.836187 497 506 603 377 388 367
30.699446 1329939191.844555 497 506 604 378 390 368
30.699446 1329939191.853122 497 506 604 379 389 368
30.741276 1329939191.867285 498 507 605 378 388 369
30.741276 1329939191.870113 498 506 607 378 388 369
30.782303 1329939191.877993 497 506 608 377 386 369
30.782303 1329939191.886086 498 506 608 377 383 370
30.824534 1329939191.894573 498 506 608 374 380 372
30.824534 1329939191.902805 498 505 607 373 376 372
30.857757 1329939191.911188 498 506 606 372 373 372
30.857757 1329939191.919301 497 506 606 373 372 372
30.899078 1329939191.928093 497 506 605 372 371 372
30.899078 1329939191.936408 497 506 603 371 371 371
30.940682 1329939191.944400 497 506 603 369 373 371
30.940682 1329939191.952764 497 506 603 368 374 371
30.994162 1329939191.961283 496 507 603 370 377 370
30.994162 1329939191.979734 497 507 603 372 380 371
31.024111 1329939191.986411 498 506 604 374 381 370
31.024111 1329939191.994560 498 505 604 374 381 370
31.057252 1329939192.003006 498 506 605 375 380 370
31.057252 1329939192.011074 498 507 605 375 379 371
31.097074 1329939192.019430 499 506 605 375 378 371
31.097074 1329939192.033535 499 506 606 375 379 372
31.143895 1329939192.038638 499 506 607 374 378 373
31.143895 1329939192.053246 499 507 606 374 377 373
31.176855 1329939192.074163 499 506 607 374 378 374
31.176855 1329939192.077599 499 506 607 373 377 372
31.221929 1329939192.085912 499 507 608 374 379 373
31.221929 1329939192.094356 497 508 610 375 377 371
31.257586 1329939192.102909 497 508 612 375 375 371
31.257586 1329939192.110973 496 509 616 376 371 370
31.298933 1329939192.119658 496 509 622 379 367 369
31.298933 1329939192.127772 495 510 628 386 360 369
31.340106 1329939192.136044 494 510 633 388 346 366
31.340106 1329939192.144184 496 508 637 387 329 365
31.382454 1329939192.153058 495 506 636 381 309 365
31.382454 1329939192.163715 494 504 628 376 286 364
31.434485 1329939192.178343 494 503 616 369 264 366
31.434485 1329939192.199705 492 502 602 363 248 368
31.457037 1329939192.202310 488 502 586 358 241 373
31.457037 1329939192.210885 487 501 570 356 241 376
31.500254 1329939192.219445 485 501 554 357 250 378
31.500254 1329939192.227848 485 500 538 364 269 381
31.540443 1329939192.247815 484 495 525 378 299 382
31.540443 1329939192.252634 480 502 506 399 345 380
31.581817 1329939192.260559 474 514 494 414 411 376
31.581817 1329939192.269110 478 517 504 420 501 371
31.623588 1329939192.277853 482 506 527 414 595 365
31.623588 1329939192.285710 499 496 565 399 667 361
31.657780 1329939192.294641 512 497 620 384 706 360
31.657780 1329939192.302749 528 500 669 378 699 359
31.698724 1329939192.310565 551 506 712 379 633 357
31.698724 1329939192.319018 549 510 746 386 523 359
31.750916 1329939192.327923 546 504 754 391 382 360
31.750916 1329939192.335657 539 502 734 387 245 364
31.781501 1329939192.362468 531 502 700 378 141 365
31.781501 1329939192.376698 518 500 660 365 82 369
31.830146 1329939192.379219 502 494 622 350 65 377
31.830146 1329939192.385725 492 491 586 334 89 385
31.864979 1329939192.394116 488 495 557 320 137 390
31.864979 1329939192.402591 486 501 536 316 183 392
31.897902 1329939192.410909 483 504 517 314 224 389
31.897902 1329939192.425863 477 503 506 315 263 385
31.939952 1329939192.439659 481 505 500 321 309 383
31.939952 1329939192.444424 484 507 494 333 357 380
31.981132 1329939192.459197 488 508 492 349 405 376
31.981132 1329939192.461594 487 508 495 376 458 374
32.023580 1329939192.473766 489 510 499 404 511 369
32.023580 1329939192.479125 496 515 507 422 571 369
32.056534 1329939192.485563 501 512 531 432 648 373
32.056534 1329939192.494057 513 508 576 423 746 378
32.098171 1329939192.502767 528 494 644 397 839 382
32.098171 1329939192.510757 553 503 728 384 880 389
32.139008 1329939192.519041 571 532 797 398 827 375
32.139008 1329939192.533456 600 528 828 421 638 359
32.181549 1329939192.538154 592 497 839 416 374 362
32.181549 1329939192.553307 583 495 813 397 155 366
32.223012 1329939192.565947 568 509 768 384 18 362
32.223012 1329939192.580134 542 506 728 377 5 361
32.256470 1329939192.594729 511 496 695 362 5 364
32.256470 1329939192.602547 495 493 662 346 6 369
32.298143 1329939192.612185 490 499 636 334 23 368
32.298143 1329939192.618772 477 501 613 331 57 366
32.338388 1329939192.627397 468 504 594 338 71 361
32.338388 1329939192.636018 470 507 580 339 75 355
32.392635 1329939192.644320 473 506 568 336 76 353
32.392635 1329939192.652624 468 504 556 332 76 350
32.422005 1329939192.660820 461 508 544 334 81 348
32.422005 1329939192.669151 457 507 534 337 91 349
32.463063 1329939192.677902 456 505 519 347 103 351
32.463063 1329939192.685812 459 507 504 358 111 352
32.503878 1329939192.694360 465 508 488 375 121 357
32.503878 1329939192.703037 466 508 468 384 137 357
32.537305 1329939192.710528 464 506 449 384 171 355
32.537305 1329939192.719002 465 505 433 388 231 354
32.578527 1329939192.728035 465 505 422 395 318 355
32.578527 1329939192.735913 457 497 419 402 431 353
32.620589 1329939192.744074 469 503 436 402 556 348
32.620589 1329939192.752591 486 511 466 396 676 352
32.662326 1329939192.760697 503 512 509 392 762 356
32.662326 1329939192.768891 512 504 566 375 816 358
32.734058 1329939192.777445 517 505 611 368 836 361
32.734058 1329939192.785263 527 514 634 384 776 353
32.746942 1329939192.793959 539 515 649 407 650 351
32.746942 1329939192.802011 517 500 666 406 502 359
32.779525 1329939192.819694 498 496 663 389 372 362
32.779525 1329939192.832306 499 502 639 380 272 363
32.820873 1329939192.857732 489 503 614 376 211 362
32.820873 1329939192.860391 473 500 594 371 185 368
32.862567 1329939192.868551 461 496 577 365 182 377
32.862567 1329939192.876681 453 496 568 366 196 382
32.903948 1329939192.885244 440 502 555 367 221 379
32.903948 1329939192.896379 433 502 543 367 243 378
32.940902 1329939192.901782 426 497 536 366 270 378
32.940902 1329939192.910212 423 495 533 362 303 378
32.979536 1329939192.918622 422 499 529 357 331 375
32.979536 1329939192.926846 423 498 524 356 346 373
33.048947 1329939192.934688 423 498 523 361 362 377
33.048947 1329939192.943426 422 496 526 364 392 379
33.057567 1329939192.951706 421 495 530 366 428 377
33.057567 1329939192.959849 420 497 530 368 456 376
33.104601 1329939192.968321 416 500 529 369 471 385
33.104601 1329939192.976463 413 502 536 367 481 390
33.138132 1329939192.984819 414 502 544 361 491 387
33.138132 1329939192.993380 419 500 550 354 497 380
33.179626 1329939193.001745 426 502 554 350 498 379
33.179626 1329939193.009765 427 507 558 354 495 384
33.221078 1329939193.018573 425 509 563 363 487 390
33.221078 1329939193.026494 431 504 569 368 481 390
33.259263 1329939193.034821 434 503 577 370 479 387
33.259263 1329939193.046651 433 505 582 374 476 383
33.297133 1329939193.051591 437 509 583 384 468 380
33.297133 1329939193.060086 441 511 585 394 462 380
33.338297 1329939193.068275 442 510 587 395 460 381
33.338297 1329939193.076449 444 506 593 387 462 381
33.380232 1329939193.086685 447 506 596 383 466 379
33.380232 1329939193.101519 450 507 597 383 467 378
33.421772 1329939193.116516 455 507 599 383 465 377
33.421772 1329939193.128684 460 507 603 378 463 377
33.463639 1329939193.160541 462 510 607 372 460 374
33.463639 1329939193.172401 464 510 610 368 454 371
33.496585 1329939193.186991 467 510 610 369 446 371
33.496585 1329939193.189982 471 512 609 372 434 373
33.538518 1329939193.193126 472 515 609 374 423 373
33.538518 1329939193.206069 473 516 609 374 418 372
33.579894 1329939193.211799 474 511 612 374 417 372
33.579894 1329939193.218126 475 507 613 375 418 372
33.634315 1329939193.226586 476 511 612 378 419 371
33.634315 1329939193.234797 478 514 611 383 416 369
33.663077 1329939193.243011 480 512 612 384 415 368
33.663077 1329939193.260206 482 507 611 384 414 367
33.696304 1329939193.274300 485 505 610 379 413 368
33.696304 1329939193.276993 487 507 609 378 407 367
33.740831 1329939193.284540 487 510 608 381 403 369
33.740831 1329939193.292857 486 511 609 382 402 372
33.791832 1329939193.301326 487 506 610 380 401 373
33.791832 1329939193.319296 488 504 611 376 399 373
33.839025 1329939193.326375 489 506 611 373 395 373
33.839025 1329939193.334713 488 508 610 373 391 372
33.856355 1329939193.343194 490 508 609 372 388 371
33.856355 1329939193.351419 489 507 609 371 385 372
33.896399 1329939193.359888 490 506 609 371 382 371
33.896399 1329939193.367796 491 508 607 371 378 371
33.937931 1329939193.376503 490 509 605 373 375 370
33.937931 1329939193.384565 491 509 603 373 373 370
33.979607 1329939193.392982 491 507 603 375 373 369
33.979607 1329939193.401173 490 506 604 377 377 368
34.018177 1329939193.409768 490 507 604 379 379 369
34.018177 1329939193.429590 492 505 603 377 379 369
34.064766 1329939193.434421 492 505 603 376 379 369
34.064766 1329939193.442721 493 506 603 375 380 369
34.102946 1329939193.450971 493 507 604 376 384 369
34.102946 1329939193.459150 493 506 604 378 384 369
34.137452 1329939193.469447 494 506 604 378 383 371
34.137452 1329939193.475649 494 506 604 376 382 371
34.179110 1329939193.484169 494 506 605 376 380 372
34.179110 1329939193.492822 494 506 604 375 378 372
34.221101 1329939193.500732 494 507 604 374 377 373
34.221101 1329939193.509194 494 506 604 374 377 371
34.262619 1329939193.517288 493 507 605 375 376 372
34.262619 1329939193.525314 494 508 605 375 375 373
34.308814 1329939193.533647 493 507 604 374 375 372
34.308814 1329939193.541872 493 507 604 372 375 372
34.337616 1329939193.550329 492 507 603 372 374 373
34.337616 1329939193.558929 494 507 603 373 375 372
34.379007 1329939193.569342 493 507 603 373 376 371
34.379007 1329939193.580923 493 507 604 373 377 370
34.417231 1329939193.585328 494 507 603 373 376 371
34.417231 1329939193.605330 494 507 605 375 377 370
34.462901 1329939193.608192 494 508 606 373 378 371
34.462901 1329939193.616677 494 507 608 370 378 371
34.504534 1329939193.624785 495 505 612 369 376 371
34.504534 1329939193.633214 494 506 622 372 376 372
34.537787 1329939193.641392 492 509 630 379 372 370
34.537787 1329939193.649822 492 511 632 382 362 369
34.579023 1329939193.658288 494 508 627 382 340 367
34.579023 1329939193.666616 492 505 619 377 313 367
34.632109 1329939193.674820 490 504 610 370 288 368
34.632109 1329939193.683486 488 505 597 370 269 368
34.662365 1329939193.702472 485 505 583 370 259 371
34.662365 1329939193.707995 484 506 568 373 258 373
34.710490 1329939193.716315 485 504 556 377 263 374
34.710490 1329939193.724886 482 502 546 387 280 376
34.737191 1329939193.733380 481 506 530 401 305 376
34.737191 1329939193.742511 482 509 519 410 341 376
34.781473 1329939193.753654 475 509 514 397 408 378
34.781473 1329939193.758950 469 501 518 368 498 379
34.819994 1329939193.766630 484 495 543 353 596 376
34.819994 1329939193.774893 497 507 592 353 676 372
34.862025 1329939193.783378 512 519 646 368 710 364
34.862025 1329939193.791579 532 519 699 388 681 357
34.899816 1329939193.811283 543 510 742 398 583 358
34.899816 1329939193.816320 544 505 758 399 436 363
34.939445 1329939193.824963 540 508 745 399 282 362
34.939445 1329939193.833427 530 509 716 396 170 363
34.978170 1329939193.841547 516 503 678 385 111 367
34.978170 1329939193.849725 502 498 637 369 96 376
35.020311 1329939193.858586 498 498 599 352 108 383
35.020311 1329939193.876559 492 500 565 337 144 388
35.057054 1329939193.883399 492 504 535 334 181 388
35.057054 1329939193.895049 485 506 517 338 220 386
35.109836 1329939193.899839 479 503 505 346 271 385
35.109836 1329939193.908326 483 500 497 353 317 381
35.136792 1329939193.916820 486 504 492 360 356 379
35.136792 1329939193.937118 485 506 489 367 396 375
35.178369 1329939193.941866 484 507 494 375 447 372
35.178369 1329939193.950129 486 510 506 387 512 368
35.220265 1329939193.958997 498 508 526 401 585 366
35.220265 1329939193.966761 509 506 557 414 653 366
35.261122 1329939193.975223 523 511 588 420 704 367
35.261122 1329939193.983431 543 506 625 406 744 369
35.303289 1329939193.992101 558 491 679 377 775 376
35.303289 1329939194.000198 558 489 745 361 768 383
35.336306 1329939194.008508 563 514 788 368 670 374
35.336306 1329939194.016895 578 528 802 389 472 366
35.378137 1329939194.025073 564 513 808 396 251 363
35.378137 1329939194.033636 550 501 785 394 91 363
35.423578 1329939194.041826 539 507 747 386 6 365
35.423578 1329939194.050272 511 508 712 376 5 368
35.461587 1329939194.058689 490 502 679 365 5 372
35.461587 1329939194.067207 484 495 645 353 15 370
35.502914 1329939194.075104 487 495 617 347 44 370
35.502914 1329939194.088896 484 498 594 349 60 369
35.536237 1329939194.091908 473 501 576 354 70 367
35.536237 1329939194.100544 462 500 563 351 81 365
35.585612 1329939194.108486 457 498 552 347 89 366
35.585612 1329939194.117201 446 501 542 347 100 368
35.625006 1329939194.125409 440 507 532 353 117 365
35.625006 1329939194.133759 435 510 519 365 138 366
35.660107 1329939194.141904 436 509 507 378 160 367
35.660107 1329939194.150550 441 506 495 392 185 368
35.701065 1329939194.161352 442 506 484 408 216 367
35.701065 1329939194.167182 447 513 472 424 258 361
35.742528 1329939194.175162 455 514 462 435 308 360
35.742528 1329939194.183698 464 508 458 436 374 359
35.784448 1329939194.192480 465 505 454 425 453 360
35.784448 1329939194.200926 477 503 469 403 544 354
35.819685 1329939194.208572 493 503 498 385 639 349
35.819685 1329939194.217473 510 497 527 369 708 347
35.859215 1329939194.225631 525 497 559 362 747 343
35.859215 1329939194.233848 526 505 597 363 757 340
35.901048 1329939194.244227 517 501 625 371 712 337
35.901048 1329939194.250535 529 499 649 383 603 339
35.944829 1329939194.258497 526 503 665 386 461 352
35.944829 1329939194.267140 517 504 667 386 336 367
35.983534 1329939194.275479 506 505 648 386 247 372
35.983534 1329939194.283519 495 503 619 384 190 372
36.017619 1329939194.292337 482 502 595 378 164 375
36.017619 1329939194.300209 466 494 578 373 162 383
36.059251 1329939194.308467 456 488 563 368 176 391
36.059251 1329939194.317126 453 493 548 358 198 391
36.100884 1329939194.325296 441 498 539 350 228 386
36.100884 1329939194.333720 427 498 533 348 262 377
36.142653 1329939194.341904 427 496 530 356 302 373
36.142653 1329939194.361699 430 499 525 358 338 372
36.184764 1329939194.370288 427 499 519 357 364 371
36.184764 1329939194.375336 423 500 519 362 386 370
36.218184 1329939194.383746 421 498 525 372 416 373
36.218184 1329939194.392349 422 497 528 374 443 373
36.266165 1329939194.400485 422 500 530 368 458 369
36.266165 1329939194.417077 420 502 532 362 460 363
36.301447 1329939194.420062 423 497 537 364 455 363
36.301447 1329939194.425859 428 498 543 369 455 367
36.343518 1329939194.433636 431 505 548 363 462 370
36.343518 1329939194.442061 427 510 550 350 467 367
36.376455 1329939194.450442 425 507 552 342 467 368
36.376455 1329939194.458638 427 502 556 341 460 370
36.418494 1329939194.467391 432 497 564 347 461 375
36.418494 1329939194.475399 432 498 573 358 470 382
36.460302 1329939194.483773 432 508 578 368 482 383
36.460302 1329939194.491956 435 515 581 374 487 384
36.507753 1329939194.500565 437 514 586 378 491 385
36.507753 1329939194.508696 438 509 595 379 496 384
36.547982 1329939194.523772 444 508 600 376 499 379
36.547982 1329939194.526575 453 508 601 378 494 375
36.592280 1329939194.534168 456 504 603 382 482 370
36.592280 1329939194.542134 454 503 604 387 468 370
36.618603 1329939194.550662 459 507 608 389 460 373
36.618603 1329939194.559084 465 507 609 387 454 376
36.660377 1329939194.567224 467 502 609 384 447 377
36.660377 1329939194.575558 468 501 610 383 441 375
36.726620 1329939194.584055 471 506 613 385 437 374
36.726620 1329939194.592239 476 505 613 387 432 374
36.738568 1329939194.600795 479 504 613 387 429 371
36.738568 1329939194.608951 480 503 614 385 426 369
36.777050 1329939194.617090 480 505 615 384 423 369
36.777050 1329939194.643123 482 504 614 382 418 368
36.818880 1329939194.657676 484 502 614 380 412 369
36.818880 1329939194.660562 485 502 615 377 407 369
36.856262 1329939194.667010 485 503 616 372 405 370
36.856262 1329939194.675126 485 505 615 369 404 370
36.909919 1329939194.683560 485 502 614 368 401 370
36.909919 1329939194.703218 486 502 614 368 395 370
36.948028 1329939194.708336 486 504 613 370 391 371
36.948028 1329939194.716772 486 507 612 373 389 371
36.985778 1329939194.724943 488 507 611 372 389 370
36.985778 1329939194.733371 488 502 610 372 388 367
37.018564 1329939194.745719 489 501 610 374 383 368
37.018564 1329939194.749884 490 504 609 376 379 366
37.060337 1329939194.758099 491 507 607 378 376 366
37.060337 1329939194.766697 491 506 607 378 375 365
37.101512 1329939194.774986 491 503 606 378 375 364
37.101512 1329939194.783115 491 501 606 376 374 366
37.143272 1329939194.791739 491 502 604 376 373 367
37.143272 1329939194.799947 492 503 603 376 372 367
37.177057 1329939194.808137 491 504 603 376 374 368
37.177057 1329939194.816579 492 502 603 376 372 368
37.218360 1329939194.826487 491 500 604 375 374 369
37.218360 1329939194.833201 491 501 603 375 373 369
37.259841 1329939194.842134 491 502 603 377 372 370
37.259841 1329939194.851405 490 501 603 377 373 370
37.301579 1329939194.858197 490 502 602 377 373 370
37.301579 1329939194.866485 489 501 603 376 375 371
37.342979 1329939194.874977 490 502 602 373 375 372
37.342979 1329939194.883128 490 502 602 373 375 371
37.376864 1329939194.891694 490 502 604 373 374 372
37.376864 1329939194.910936 490 502 603 374 373 372
37.418053 1329939194.923260 490 502 603 373 374 373
37.418053 1329939194.925817 490 503 603 373 376 372
37.459594 1329939194.933477 490 504 603 374 376 373
37.459594 1329939194.941648 490 503 603 376 374 372
37.501390 1329939194.949985 490 502 603 376 374 372
37.501390 1329939194.958526 489 502 603 375 375 373
37.543120 1329939194.975807 490 503 605 375 376 373
37.543120 1329939194.988007 489 504 605 375 376 373
37.584435 1329939195.002910 489 503 606 374 375 372
37.584435 1329939195.009254 488 501 609 373 374 372
37.617748 1329939195.016830 487 503 614 373 374 371
37.617748 1329939195.024754 487 505 617 377 372 369
37.659537 1329939195.033422 488 505 621 379 366 368
37.659537 1329939195.044502 487 505 623 382 355 367
37.704921 1329939195.049598 488 504 621 382 335 365
37.704921 1329939195.057979 489 502 615 379 312 366
37.743231 1329939195.066899 488 500 604 372 291 368
37.743231 1329939195.074675 486 500 591 362 275 371
37.775671 1329939195.083212 485 496 578 356 269 376
37.775671 1329939195.091433 486 497 564 358 276 381
37.817261 1329939195.100005 478 503 551 362 298 386
37.817261 1329939195.107899 474 509 540 368 333 384
37.859945 1329939195.116532 478 513 535 377 377 380
37.859945 1329939195.124532 480 508 534 381 426 378
37.902686 1329939195.133310 485 499 540 381 477 376
37.902686 1329939195.153461 487 498 552 379 530 375
37.942471 1329939195.158065 496 504 569 375 581 372
37.942471 1329939195.166314 503 509 602 374 625 368
37.978646 1329939195.174757 507 508 636 375 648 367
37.978646 1329939195.183068 527 505 670 376 631 366
38.019804 1329939195.191272 540 507 699 377 563 367
38.019804 1329939195.207995 539 507 719 377 456 366
38.059354 1329939195.229984 537 505 719 380 332 364
38.059354 1329939195.232595 529 505 701 383 229 365
38.100648 1329939195.241408 524 505 672 382 158 366
38.100648 1329939195.249714 512 504 640 379 121 368
38.142273 1329939195.257973 500 500 611 371 116 374
38.142273 1329939195.266452 491 496 587 360 139 379
38.177349 1329939195.281239 486 496 564 348 182 386
38.177349 1329939195.294762 484 499 547 344 226 389
38.217056 1329939195.299690 480 504 532 345 264 388
38.217056 1329939195.307836 480 502 525 347 301 384
38.258906 1329939195.316455 481 501 519 352 339 383
38.258906 1329939195.324690 483 504 517 354 379 380
38.300419 1329939195.334813 486 507 521 365 423 379
38.300419 1329939195.349754 486 512 528 376 469 377
38.345135 1329939195.362150 490 512 533 390 515 375
38.345135 1329939195.368020 497 511 540 400 563 371
38.383402 1329939195.380949 500 511 563 401 625 365
38.383402 1329939195.383743 514 508 590 403 685 362
38.416462 1329939195.391187 527 503 645 402 734 361
38.416462 1329939195.399732 526 509 704 414 748 363
38.458441 1329939195.408010 560 510 738 427 678 353
38.458441 1329939195.416495 581 506 761 428 528 354
38.500354 1329939195.425045 558 496 777 415 358 356
38.500354 1329939195.432969 552 497 763 407 219 352
38.544542 1329939195.441108 541 501 736 396 127 350
38.544542 1329939195.450752 524 498 708 384 82 351
38.583563 1329939195.475308 506 495 682 373 67 353
38.583563 1329939195.483336 491 493 661 365 77 354
38.616202 1329939195.491584 488 490 640 362 93 354
38.616202 1329939195.500129 480 494 622 368 110 355
38.658293 1329939195.520820 473 498 608 373 119 355
38.658293 1329939195.537496 468 496 597 376 125 355
38.699222 1329939195.550598 460 492 586 375 129 357
38.699222 1329939195.565807 454 492 580 372 135 359
38.746875 1329939195.589441 449 496 573 372 146 364
38.746875 1329939195.603528 443 495 562 375 152 368
38.782173 1329939195.607841 440 493 547 382 153 371
38.782173 1329939195.615895 439 493 534 384 158 378
38.823361 1329939195.624545 439 493 523 382 166 381
38.823361 1329939195.632916 442 493 510 387 179 382
38.856579 1329939195.641007 447 493 497 393 199 382
38.856579 1329939195.649492 455 496 482 403 227 383
38.898176 1329939195.657397 462 502 471 412 267 381
38.898176 1329939195.665721 460 503 462 416 320 378
38.939556 1329939195.676357 461 500 462 413 392 373
38.939556 1329939195.682736 476 503 473 406 481 368
38.981352 1329939195.690820 483 508 495 394 575 364
38.981352 1329939195.699374 493 510 527 377 651 361
39.023500 1329939195.707823 501 494 561 364 700 360
39.023500 1329939195.715716 506 488 585 360 711 359
39.056357 1329939195.736486 518 497 604 363 683 356
39.056357 1329939195.760340 528 507 619 379 623 357
39.097999 1329939195.783654 525 508 627 390 542 359
39.097999 1329939195.798004 516 501 627 398 450 365
39.139837 1329939195.801007 508 497 623 397 375 366
39.139837 1329939195.807391 503 500 613 394 318 368
39.181261 1329939195.830581 492 500 599 392 278 370
39.181261 1329939195.844485 479 497 588 391 248 372
39.222891 1329939195.849132 470 494 579 390 234 370
39.222891 1329939195.857461 465 493 570 384 231 370
39.264727 1329939195.865760 456 494 561 379 233 369
39.264727 1329939195.873650 444 492 554 376 241 367
39.298783 1329939195.883895 441 487 550 370 261 365
39.298783 1329939195.890664 437 483 546 358 297 365
39.340006 1329939195.898739 423 486 539 348 334 369
39.340006 1329939195.907247 424 493 538 346 363 373
39.382054 1329939195.915463 426 495 540 341 384 372
39.382054 1329939195.939928 431 492 545 337 403 372
39.423343 1329939195.953718 423 489 548 340 418 377
39.423343 1329939195.957305 425 490 552 344 424 385
39.456659 1329939195.965713 427 492 555 343 423 386
39.456659 1329939195.975961 428 497 558 340 425 385
39.516979 1329939195.982390 423 504 560 344 425 383
39.516979 1329939195.993669 423 502 562 352 424 384
39.540245 1329939195.998480 424 496 565 360 426 389
39.540245 1329939196.007342 425 496 567 362 431 390
39.581992 1329939196.015701 423 498 571 358 436 389
39.581992 1329939196.023834 424 497 575 357 439 388
39.623797 1329939196.032366 428 498 580 360 442 389
39.623797 1329939196.047779 429 503 584 366 444 388
39.656911 1329939196.050662 433 509 584 372 444 386
39.656911 1329939196.057072 438 512 584 377 445 379
39.699007 1329939196.065466 439 506 585 379 446 379
39.699007 1329939196.073798 440 501 586 380 449 379
39.740019 1329939196.082069 444 505 587 381 449 379
39.740019 1329939196.090476 448 510 588 383 447 377
39.782454 1329939196.111110 450 508 592 382 448 378
39.782454 1329939196.134550 452 504 594 379 449 375
39.823469 1329939196.146957 455 503 598 375 451 374
39.823469 1329939196.151650 458 505 602 374 450 374
39.856841 1329939196.156669 460 507 607 375 448 374
39.856841 1329939196.165336 461 507 609 376 443 374
39.898947 1329939196.182253 463 506 610 373 438 374
39.898947 1329939196.205633 463 505 611 372 431 376
39.946308 1329939196.219380 464 505 612 376 426 377
39.946308 1329939196.223264 468 506 610 380 419 375
39.981577 1329939196.231738 470 507 612 377 416 374
39.981577 1329939196.240502 471 505 612 371 412 374
40.032384 1329939196.253709 473 505 611 372 407 373
40.032384 1329939196.268203 473 505 608 375 403 373
40.056723 1329939196.274683 474 505 606 378 402 374
40.056723 1329939196.281540 475 504 608 376 406 374
40.098585 1329939196.289833 476 504 609 375 410 373
40.098585 1329939196.298389 480 506 608 377 407 371
40.140046 1329939196.306444 482 506 606 380 406 370
40.140046 1329939196.314897 483 506 605 378 403 370
40.191937 1329939196.323071 483 505 605 375 399 369
40.191937 1329939196.331502 485 504 605 376 395 368
40.223349 1329939196.339978 486 504 604 376 393 368
40.223349 1329939196.348397 486 506 603 376 390 367
40.256628 1329939196.356360 485 506 604 378 393 367
40.256628 1329939196.365149 487 505 605 379 392 367
40.297435 1329939196.373338 487 503 605 377 391 366
40.297435 1329939196.381633 488 504 604 377 386 367
40.339560 1329939196.389890 488 504 605 379 385 367
40.339560 1329939196.398750 486 504 606 382 386 367
40.381146 1329939196.409606 487 502 606 382 386 367
40.381146 1329939196.414933 487 500 605 377 385 368
40.423162 1329939196.423270 489 501 604 375 382 369
40.423162 1329939196.431810 487 503 604 373 377 370
40.456512 1329939196.439984 488 503 606 375 377 369
40.456512 1329939196.448642 487 503 609 375 379 370
40.498257 1329939196.459281 487 502 608 373 379 369
40.498257 1329939196.465485 488 502 608 369 377 369
40.541460 1329939196.473477 488 502 608 368 374 370
40.541460 1329939196.481786 487 504 610 371 372 371
40.581409 1329939196.489938 487 506 612 373 371 371
40.581409 1329939196.498414 488 505 612 372 369 369
40.623060 1329939196.506682 489 503 613 371 366 370
40.623060 1329939196.514680 488 503 612 371 361 371
40.664522 1329939196.523027 488 505 613 372 355 370
40.664522 1329939196.531493 487 505 614 373 352 371
40.696588 1329939196.539678 486 503 613 374 349 371
40.696588 1329939196.548076 487 503 612 373 344 371
40.739875 1329939196.561255 484 504 613 374 341 371
40.739875 1329939196.564556 484 502 612 372 335 370
40.785418 1329939196.573205 484 501 610 372 330 370
40.785418 1329939196.581217 483 502 608 374 319 370
40.822554 1329939196.589576 483 502 603 375 308 371
40.822554 1329939196.597494 482 502 597 375 296 370
40.864612 1329939196.605770 480 500 590 376 282 371
40.864612 1329939196.615186 480 498 578 378 267 371
40.897969 1329939196.622455 485 497 565 384 252 373
40.897969 1329939196.630522 484 498 551 378 247 376
40.945595 1329939196.639144 480 499 536 373 256 379
40.945595 1329939196.647287 475 500 521 371 282 379
40.980754 1329939196.658496 472 503 508 377 329 378
40.980754 1329939196.664546 469 507 498 388 396 373
41.016046 1329939196.672232 471 510 495 394 483 367
41.016046 1329939196.680187 476 506 511 395 588 365
41.064148 1329939196.688173 488 503 549 396 696 358
41.064148 1329939196.696716 501 497 604 396 778 356
41.095906 1329939196.716330 518 496 655 391 794 355
41.095906 1329939196.721337 548 497 710 376 739 358
41.142288 1329939196.729687 560 497 758 359 613 364
41.142288 1329939196.737778 554 501 778 372 439 361
41.180967 1329939196.746239 549 505 764 392 262 356
41.180967 1329939196.754700 544 505 731 393 132 357
41.222360 1329939196.762916 524 502 694 383 64 361
41.222360 1329939196.771316 498 502 655 368 45 367
41.255676 1329939196.779655 486 498 615 355 66 376
41.255676 1329939196.788571 484 497 576 345 113 386
41.296874 1329939196.796310 483 499 543 343 169 392
41.296874 1329939196.804843 481 502 522 341 216 393
41.338385 1329939196.812750 485 500 512 346 258 392
41.338385 1329939196.845075 486 502 501 353 295 388
41.380365 1329939196.866501 489 502 494 356 328 382
41.380365 1329939196.876722 491 502 486 359 360 378
41.421720 1329939196.890776 491 502 482 359 397 374
41.421720 1329939196.896614 491 501 483 364 445 375
41.463512 1329939196.904775 490 505 490 373 510 375
41.463512 1329939196.913108 488 510 514 380 605 380
41.496893 1329939196.921541 493 514 574 383 716 387
41.496893 1329939196.929512 494 515 651 392 799 386
41.538428 1329939196.938055 520 517 721 401 801 374
41.538428 1329939196.946479 550 514 784 403 705 371
41.580451 1329939196.954803 540 511 821 405 532 368
41.580451 1329939196.963159 535 515 823 407 336 359
41.622834 1329939196.981299 524 508 796 401 179 354
41.622834 1329939196.988006 505 503 758 389 82 353
41.663696 1329939196.996377 481 501 712 379 45 356
41.663696 1329939197.005114 467 498 672 372 57 357
41.696727 1329939197.013182 457 492 641 366 97 359
41.696727 1329939197.021521 458 493 618 361 138 362
41.738246 1329939197.034392 458 498 604 358 164 363
41.738246 1329939197.037955 460 500 594 358 178 363
41.779777 1329939197.046204 462 501 587 358 185 365
41.779777 1329939197.054910 464 501 578 356 187 367
41.820761 1329939197.063067 465 501 565 358 187 368
41.820761 1329939197.079420 462 504 554 362 188 370
41.862827 1329939197.092210 457 505 543 362 192 366
41.862827 1329939197.096589 453 505 532 369 195 367
41.906217 1329939197.105228 453 506 520 382 197 367
41.906217 1329939197.114315 451 508 510 401 202 367
41.936817 1329939197.121723 451 506 497 421 210 367
41.936817 1329939197.130147 451 505 484 436 221 367
41.978496 1329939197.138731 457 507 474 446 241 367
41.978496 1329939197.162044 460 507 467 450 278 364
42.019535 1329939197.164555 462 506 466 440 340 358
42.019535 1329939197.172042 463 499 469 414 432 355
42.061664 1329939197.180327 468 496 483 388 527 355
42.061664 1329939197.188755 482 498 507 367 606 355
42.103040 1329939197.196844 492 498 541 344 660 351
42.103040 1329939197.205379 496 494 569 329 679 350
42.146927 1329939197.213626 501 491 590 333 660 345
42.146927 1329939197.221985 508 499 607 341 612 343
42.178413 1329939197.230119 503 506 638 348 554 350
42.178413 1329939197.238922 489 509 652 373 480 356
42.219677 1329939197.247434 492 507 647 398 390 354
42.219677 1329939197.255872 492 503 631 407 309 356
42.261587 1329939197.264380 482 501 614 397 253 363
42.261587 1329939197.272321 473 498 596 388 222 370
42.299464 1329939197.280683 465 493 579 379 211 373
42.299464 1329939197.289448 460 490 564 371 216 372
42.336763 1329939197.297321 450 487 553 363 234 368
42.336763 1329939197.306008 439 485 544 355 260 369
42.378086 1329939197.325287 439 481 541 346 288 373
42.378086 1329939197.330931 440 485 540 343 314 372
42.420175 1329939197.338968 436 494 533 348 327 367
42.420175 1329939197.347580 436 498 530 350 336 367
42.461733 1329939197.355901 433 498 531 348 351 372
42.461733 1329939197.364149 428 499 534 347 372 367
42.503158 1329939197.372674 427 500 532 350 391 363
42.503158 1329939197.380791 423 497 531 357 404 366
42.538686 1329939197.388855 421 495 534 362 420 374
42.538686 1329939197.397312 423 498 538 362 437 376
42.578408 1329939197.405758 426 501 544 359 457 373
42.578408 1329939197.413901 422 499 548 360 471 374
42.620348 1329939197.422334 421 499 553 371 479 381
42.620348 1329939197.431803 423 502 559 380 482 385
42.662907 1329939197.438958 427 506 566 379 487 384
42.662907 1329939197.447171 429 502 571 374 488 379
42.695572 1329939197.455888 427 493 578 375 485 376
42.695572 1329939197.463996 424 492 584 380 477 378
42.737252 1329939197.472474 429 499 588 387 469 379
42.737252 1329939197.483037 435 506 593 382 464 380
42.784509 1329939197.489133 441 502 597 374 458 379
42.784509 1329939197.497341 445 495 598 366 451 378
42.832643 1329939197.505806 448 495 598 365 440 379
42.832643 1329939197.513964 445 500 599 373 432 379
42.862870 1329939197.522361 443 503 601 377 428 381
42.862870 1329939197.530768 446 501 601 378 426 378
42.895850 1329939197.538663 449 501 604 374 428 374
42.895850 1329939197.547219 448 498 607 368 435 371
42.943275 1329939197.556085 452 499 608 364 437 371
42.943275 1329939197.564093 455 500 608 362 432 371
42.979225 1329939197.573050 458 500 609 360 427 372
42.979225 1329939197.581310 459 503 611 363 424 373
43.020880 1329939197.589358 462 505 609 363 418 372
43.020880 1329939197.597732 468 504 605 362 411 372
43.062366 1329939197.606100 470 503 604 364 401 371
43.062366 1329939197.614720 469 506 603 369 396 369
43.095741 1329939197.622870 470 507 601 375 396 367
43.095741 1329939197.643075 473 504 600 377 396 368
43.137654 1329939197.666960 474 502 602 376 399 368
43.137654 1329939197.690636 475 504 603 372 402 369
43.176186 1329939197.705006 476 506 602 373 406 371
43.176186 1329939197.708020 478 507 602 374 408 372
43.220837 1329939197.714090 479 504 601 372 407 373
43.220837 1329939197.722641 481 503 600 369 407 375
43.262539 1329939197.731059 481 504 600 368 404 375
43.262539 1329939197.739182 479 506 603 371 403 375
43.295829 1329939197.747138 480 506 604 375 402 372
43.295829 1329939197.755906 482 505 604 377 397 370
43.337393 1329939197.763992 482 505 605 378 389 368
43.337393 1329939197.772307 480 505 604 379 381 367
43.378855 1329939197.780587 480 506 605 383 378 367
43.378855 1329939197.788826 479 505 605 382 379 367
43.418662 1329939197.796780 479 504 606 379 381 368
43.418662 1329939197.805436 481 503 606 378 383 368
43.463138 1329939197.813965 480 506 605 377 385 369
43.463138 1329939197.821976 481 506 606 379 387 368
43.495947 1329939197.830676 481 504 606 380 388 369
43.495947 1329939197.838810 483 502 606 378 385 368
43.537051 1329939197.846652 485 500 605 380 381 368
43.537051 1329939197.855419 484 502 604 380 374 368
43.578767 1329939197.863903 484 502 603 379 372 369
43.578767 1329939197.871950 483 500 603 378 372 369
43.616373 1329939197.887333 483 500 603 376 373 371
43.616373 1329939197.889918 484 501 600 376 374 371
43.679896 1329939197.896576 484 502 599 378 374 373
43.679896 1329939197.905381 483 502 600 378 377 373
43.697785 1329939197.913796 483 502 600 378 380 373
43.697785 1329939197.921733 484 502 600 376 383 374
43.736963 1329939197.930404 485 502 600 373 385 373
43.736963 1329939197.938598 485 503 600 373 386 374
43.778821 1329939197.946660 486 504 602 377 386 374
43.778821 1329939197.955414 486 505 603 376 385 374
43.820406 1329939197.963692 488 503 604 376 383 373
43.820406 1329939197.971717 487 502 603 374 380 374
43.865379 1329939197.980556 487 503 603 375 380 375
43.865379 1329939197.988985 488 504 604 373 378 374
43.903497 1329939197.996790 488 504 606 376 377 373
43.903497 1329939198.005688 488 503 606 376 376 373
43.937214 1329939198.013922 488 503 609 374 376 373
43.937214 1329939198.021988 487 503 611 374 374 372
43.980320 1329939198.030526 487 503 614 373 370 371
43.980320 1329939198.038940 487 502 617 376 368 370
44.020041 1329939198.046721 485 502 620 379 365 369
44.020041 1329939198.055513 486 503 617 380 354 368
44.062401 1329939198.063827 487 503 611 381 337 367
44.062401 1329939198.071881 486 501 601 380 319 368
44.103869 1329939198.080748 482 497 589 383 301 369
44.103869 1329939198.088906 484 502 576 388 291 370
44.136866 1329939198.096699 482 502 563 391 292 371
44.136866 1329939198.105370 481 500 549 392 305 373
44.190135 1329939198.113953 478 500 537 393 329 372
44.190135 1329939198.121954 478 501 526 399 359 371
44.220170 1329939198.138483 483 503 520 405 397 371
44.220170 1329939198.141226 487 502 521 398 452 372
44.261720 1329939198.146739 487 496 535 383 523 373
44.261720 1329939198.155255 493 490 564 363 609 374
44.309669 1329939198.167503 505 492 612 358 685 372
44.309669 1329939198.182234 511 502 662 363 721 368
44.336524 1329939198.188847 546 503 698 370 688 363
44.336524 1329939198.196957 563 491 727 377 586 359
44.377925 1329939198.205059 556 489 742 385 446 361
44.377925 1329939198.213739 549 500 727 398 304 362
44.417667 1329939198.222210 540 501 703 404 195 364
44.417667 1329939198.229811 531 497 669 395 133 365
44.461000 1329939198.239000 522 496 632 384 102 367
44.461000 1329939198.246907 511 499 601 376 95 372
44.502949 1329939198.255092 497 493 576 365 115 378
44.502949 1329939198.263672 490 489 550 355 161 385
44.535973 1329939198.272242 484 494 529 348 214 390
44.535973 1329939198.295331 482 497 516 346 268 393
44.577667 1329939198.298439 483 498 506 346 320 398
44.577667 1329939198.305536 482 498 501 344 373 400
44.617670 1329939198.313360 484 501 501 342 421 402
44.617670 1329939198.322275 488 502 507 344 471 402
44.660059 1329939198.330243 495 506 517 351 525 402
44.660059 1329939198.338527 503 506 533 362 582 402
44.702345 1329939198.346801 512 512 563 377 647 400
44.702345 1329939198.355483 520 518 601 388 711 394
44.743800 1329939198.363343 534 516 654 395 755 382
44.743800 1329939198.372099 551 503 713 389 752 381
44.776803 1329939198.380238 580 498 749 386 671 373
44.776803 1329939198.388434 581 509 771 393 516 365
44.818769 1329939198.397151 568 509 784 395 347 361
44.818769 1329939198.405238 560 502 773 391 211 360
44.858341 1329939198.413629 548 502 747 378 113 360
44.858341 1329939198.421894 529 503 715 366 56 361
44.902736 1329939198.430183 511 503 693 360 38 361
44.902736 1329939198.438775 490 502 671 355 53 364
44.935945 1329939198.446958 483 501 646 351 78 366
44.935945 1329939198.455185 480 504 625 351 99 369
44.977379 1329939198.463324 476 506 609 351 111 370
44.977379 1329939198.472042 476 503 594 351 117 370
45.018345 1329939198.480224 476 500 578 353 118 375
45.018345 1329939198.502568 475 501 563 354 118 377
