imu_t vicon_t accel_x accel_y accel_z gyro_x gyro_y gyro_z
0.386448 1329939828.300570 506 503 606 374 376 370
0.386448 1329939828.432065 506 503 605 374 375 370
0.386448 1329939828.440484 506 503 605 375 376 370
0.386448 1329939828.448844 506 503 606 374 377 370
0.386448 1329939828.457128 506 503 606 374 377 370
0.386448 1329939828.465427 506 503 605 375 375 370
0.452334 1329939828.473378 507 503 605 374 376 371
0.452334 1329939828.482141 506 503 606 374 376 370
0.452334 1329939828.500583 506 503 606 375 376 369
0.452334 1329939828.507505 507 503 605 374 376 371
0.452334 1329939828.515550 506 503 605 373 376 370
0.452334 1329939828.523882 507 503 604 374 376 370
0.500965 1329939828.531665 506 502 607 374 377 370
0.500965 1329939828.540365 507 503 605 375 376 370
0.500965 1329939828.553334 506 502 605 374 377 370
0.500965 1329939828.556623 506 503 606 374 376 370
0.500965 1329939828.565457 506 503 604 374 375 371
0.500965 1329939828.573642 506 503 605 373 377 370
0.567021 1329939828.581902 506 503 605 374 377 371
0.567021 1329939828.590484 506 503 606 375 376 371
0.567021 1329939828.598634 506 503 605 375 375 370
0.567021 1329939828.606840 507 503 606 374 376 370
0.567021 1329939828.615180 507 502 606 373 377 370
0.567021 1329939828.629368 507 503 606 374 376 371
0.625315 1329939828.631744 507 503 606 374 377 370
0.625315 1329939828.640808 506 503 605 374 376 369
0.625315 1329939828.678818 506 503 605 374 377 371
0.625315 1329939828.683517 506 503 605 373 376 369
0.625315 1329939828.690214 506 503 605 374 376 371
0.625315 1329939828.698520 506 503 605 374 377 370
0.683530 1329939828.706877 506 503 605 374 377 371
0.683530 1329939828.730622 506 503 606 374 376 371
0.683530 1329939828.732938 507 503 606 374 376 371
0.683530 1329939828.739813 507 503 605 374 376 370
0.683530 1329939828.748678 507 503 606 375 376 370
0.683530 1329939828.756870 507 503 605 374 375 371
0.741179 1329939828.765762 507 503 605 374 377 370
0.741179 1329939828.773496 506 502 606 374 376 370
0.741179 1329939828.782647 506 503 605 374 376 370
0.741179 1329939828.790019 506 503 605 374 375 370
0.741179 1329939828.798697 505 503 605 375 376 370
0.741179 1329939828.806979 505 503 605 374 376 369
0.800629 1329939828.814878 505 503 605 374 377 371
0.800629 1329939828.823548 506 503 606 374 377 370
0.800629 1329939828.831598 507 503 605 376 376 369
0.800629 1329939828.840096 507 503 605 375 375 370
0.800629 1329939828.848382 508 502 606 375 377 370
0.800629 1329939828.856698 508 503 605 374 376 371
0.866102 1329939828.864892 507 503 605 374 376 370
0.866102 1329939828.883001 507 503 605 373 376 370
0.866102 1329939828.890116 506 503 605 375 376 370
0.866102 1329939828.898265 505 503 605 374 377 369
0.866102 1329939828.906918 504 503 604 374 376 370
0.866102 1329939828.914571 504 503 605 373 376 370
0.924058 1329939828.923286 505 503 605 374 376 371
0.924058 1329939828.931572 506 503 605 374 377 370
0.924058 1329939828.940045 507 503 605 375 377 370
0.924058 1329939828.948352 507 503 606 374 376 369
0.924058 1329939828.956857 508 503 606 374 376 370
0.924058 1329939828.964661 508 503 605 374 376 371
0.982549 1329939828.973243 507 503 606 374 375 369
0.982549 1329939828.981283 506 503 605 375 376 369
0.982549 1329939828.989950 506 503 605 374 376 370
0.982549 1329939828.998384 505 503 605 374 376 370
0.982549 1329939829.006659 505 503 605 374 376 370
0.982549 1329939829.014459 505 503 605 375 376 369
1.040846 1329939829.023156 505 503 605 375 378 371
1.040846 1329939829.031375 506 503 606 374 377 370
1.040846 1329939829.040092 507 503 605 375 377 370
1.040846 1329939829.048193 507 503 605 374 376 370
1.040846 1329939829.056431 508 503 606 373 376 371
1.040846 1329939829.064681 508 503 606 374 376 369
1.107309 1329939829.073340 508 503 605 374 376 370
1.107309 1329939829.081349 507 503 605 374 375 370
1.107309 1329939829.089989 505 503 605 374 375 370
1.107309 1329939829.098167 505 503 605 374 377 369
1.107309 1329939829.106498 505 502 605 375 376 369
1.107309 1329939829.114456 505 503 605 374 377 371
1.165929 1329939829.123229 505 503 605 374 376 370
1.165929 1329939829.131264 506 503 604 374 377 371
1.165929 1329939829.139866 507 503 605 375 377 371
1.165929 1329939829.148002 507 503 606 374 377 371
1.165929 1329939829.156247 508 503 606 375 376 371
1.165929 1329939829.164181 507 503 606 374 376 370
1.224208 1329939829.173026 507 503 606 374 376 370
1.224208 1329939829.181062 506 503 606 373 376 370
1.224208 1329939829.193764 506 503 605 374 376 370
1.224208 1329939829.199668 505 503 604 374 376 371
1.224208 1329939829.211956 505 503 605 374 376 370
1.224208 1329939829.218280 505 503 605 375 377 370
1.282243 1329939829.223470 505 503 605 374 376 371
1.282243 1329939829.230673 506 503 605 375 375 371
1.282243 1329939829.246355 507 503 605 373 378 370
1.282243 1329939829.268527 507 503 605 375 376 370
1.282243 1329939829.272289 507 503 605 374 376 370
1.282243 1329939829.280387 507 503 605 375 376 370
1.340628 1329939829.288765 507 503 606 374 376 370
1.340628 1329939829.297236 506 503 605 373 376 370
1.340628 1329939829.305747 506 502 605 374 376 369
1.340628 1329939829.313712 506 503 605 373 377 370
1.340628 1329939829.322289 505 503 606 375 376 369
1.373775 1329939829.330490 506 503 605 375 376 370
1.373775 1329939829.338858 507 502 605 374 375 370
1.407240 1329939829.347102 507 503 606 373 376 371
1.432268 1329939829.355657 507 503 605 375 376 371
1.432268 1329939829.363811 506 503 605 374 376 370
1.465492 1329939829.372278 505 503 605 374 377 371
1.490759 1329939829.380346 505 503 605 375 376 370
1.490759 1329939829.388524 506 503 605 374 377 371
1.525606 1329939829.397198 508 503 606 374 377 370
1.553731 1329939829.405432 508 502 605 373 375 370
1.553731 1329939829.413442 506 503 605 374 375 370
1.581760 1329939829.422157 505 503 605 374 376 371
1.615524 1329939829.430228 506 503 605 375 376 372
1.615524 1329939829.438551 507 503 606 375 377 370
1.640638 1329939829.447005 507 503 605 374 375 369
1.673497 1329939829.455642 507 503 605 375 376 369
1.673497 1329939829.463680 506 503 605 374 376 369
1.706689 1329939829.472261 506 503 605 375 376 370
1.731923 1329939829.480202 506 503 605 374 377 370
1.731923 1329939829.488554 506 503 606 375 376 370
1.764586 1329939829.496952 507 502 605 375 376 370
1.789924 1329939829.505543 507 503 605 374 376 370
1.789924 1329939829.513652 506 503 605 375 377 370
1.822858 1329939829.522154 505 503 605 374 376 370
1.856621 1329939829.530234 506 503 605 375 376 370
1.856621 1329939829.538687 507 503 605 375 377 370
1.881639 1329939829.547057 507 503 605 375 375 371
1.914634 1329939829.555486 506 503 605 375 376 370
1.914634 1329939829.563665 506 503 605 375 378 370
1.945101 1329939829.572216 506 503 605 373 377 371
1.972865 1329939829.580290 506 503 606 373 376 371
1.972865 1329939829.588897 506 503 605 374 376 370
2.006486 1329939829.597012 507 503 605 374 376 371
2.031302 1329939829.605431 506 503 606 374 375 371
2.031302 1329939829.613917 506 502 606 374 376 370
2.064823 1329939829.622165 506 503 605 374 376 370
2.089829 1329939829.630146 506 503 605 375 376 370
2.089829 1329939829.638783 507 503 605 374 377 370
2.123106 1329939829.647060 507 503 605 374 376 370
2.156636 1329939829.655383 506 503 605 374 375 371
2.156636 1329939829.663903 506 503 605 374 376 370
2.181090 1329939829.671864 506 503 605 375 377 370
2.214811 1329939829.680091 506 503 605 374 376 369
2.214811 1329939829.688612 506 502 605 375 376 370
2.239757 1329939829.696963 507 502 605 374 376 370
2.272848 1329939829.705178 507 503 605 374 375 370
2.272848 1329939829.713721 506 503 605 374 376 370
2.306944 1329939829.722058 506 503 605 374 376 369
2.330967 1329939829.730073 506 503 605 374 376 371
2.330967 1329939829.738553 506 503 606 374 377 370
2.364605 1329939829.746936 507 503 605 374 377 371
2.406209 1329939829.755316 507 502 605 374 375 371
2.406209 1329939829.763613 506 503 606 374 376 370
2.430644 1329939829.771988 506 503 605 375 377 370
2.465824 1329939829.780095 507 503 605 374 376 370
2.506167 1329939829.788656 506 503 605 374 376 370
2.506167 1329939829.796764 507 503 605 374 377 370
2.535779 1329939829.805248 506 503 605 374 376 370
2.564289 1329939829.813768 506 503 605 374 376 370
2.606011 1329939829.821909 506 503 605 373 377 370
2.606011 1329939829.830092 507 503 605 374 376 370
2.636074 1329939829.838597 506 503 606 375 376 370
2.664374 1329939829.846785 506 503 605 374 376 370
2.706084 1329939829.855146 506 503 606 374 378 370
2.706084 1329939829.863832 506 503 605 374 376 370
2.730905 1329939829.871810 507 503 605 374 377 371
2.764263 1329939829.879974 506 503 605 374 376 370
2.806032 1329939829.888460 506 503 605 374 376 369
2.806032 1329939829.902153 506 503 605 374 376 370
2.831062 1329939829.904852 507 503 605 374 377 370
2.864104 1329939829.913743 506 503 606 374 376 371
2.906172 1329939829.921756 506 502 606 375 377 370
2.906172 1329939829.929714 507 503 606 375 375 371
2.934044 1329939829.938570 506 503 605 374 377 370
2.960428 1329939829.948470 505 503 605 375 376 369
3.005802 1329939829.954857 506 503 605 374 377 370
3.005802 1329939829.965222 507 503 606 374 376 370
3.030764 1329939829.976735 507 503 606 374 376 370
3.059578 1329939829.979667 506 503 605 374 376 370
3.105035 1329939829.988177 505 503 606 375 376 370
3.105035 1329939829.996639 506 503 604 375 376 371
3.130664 1329939830.004790 506 503 605 374 376 370
3.163921 1329939830.013661 507 503 606 374 375 370
3.209633 1329939830.021531 506 503 605 374 376 370
3.209633 1329939830.029541 506 503 606 374 376 369
3.247099 1329939830.038279 506 503 605 374 377 370
3.280786 1329939830.046525 507 503 605 374 376 370
3.322126 1329939830.055214 506 503 606 375 376 369
3.363707 1329939830.063271 506 503 606 374 376 370
3.405558 1329939830.071657 506 503 605 374 377 370
3.447246 1329939830.079604 506 503 606 374 375 371
3.480208 1329939830.089688 506 503 605 374 376 371
3.521767 1329939830.096507 507 503 605 374 376 369
3.563901 1329939830.116140 506 503 605 374 376 370
3.605497 1329939830.129633 506 503 606 374 377 370
3.645753 1329939830.131505 506 503 605 375 376 370
3.688350 1329939830.137650 506 503 605 374 376 370
3.722031 1329939830.146265 507 503 606 374 376 370
3.763314 1329939830.154772 506 503 605 374 376 370
3.805304 1329939830.163073 507 503 606 374 376 371
3.846566 1329939830.176975 507 503 605 374 377 370
3.846566 1329939830.179538 506 503 605 374 376 370
3.888692 1329939830.187518 507 502 605 373 376 370
3.888692 1329939830.196150 506 503 605 374 377 371
3.921365 1329939830.204481 506 503 605 374 376 371
3.921365 1329939830.212799 507 503 605 374 376 371
3.963142 1329939830.221726 507 503 605 373 376 371
3.963142 1329939830.229707 507 503 605 376 376 370
4.004713 1329939830.237765 506 503 606 374 376 370
4.004713 1329939830.245771 506 502 605 374 376 371
4.047619 1329939830.254657 507 503 605 374 377 370
4.047619 1329939830.262738 507 503 605 373 377 370
4.088038 1329939830.270927 507 503 606 374 376 370
4.088038 1329939830.279630 506 503 605 374 376 370
4.120870 1329939830.287455 505 503 605 374 377 370
4.120870 1329939830.295782 506 503 605 375 377 370
4.163009 1329939830.304563 506 503 606 374 376 371
4.163009 1329939830.312867 507 503 605 375 376 370
4.204590 1329939830.320983 506 503 606 374 376 369
4.204590 1329939830.329630 506 503 605 374 376 369
4.245779 1329939830.337560 506 503 605 375 376 370
4.245779 1329939830.346005 506 503 605 375 375 370
4.287589 1329939830.354336 506 503 605 374 376 370
4.287589 1329939830.367901 507 502 605 374 376 370
4.320464 1329939830.372557 506 502 606 374 376 370
4.320464 1329939830.379403 506 503 605 374 376 370
4.362454 1329939830.387416 506 503 606 374 376 370
4.362454 1329939830.395768 506 503 605 374 376 370
4.403984 1329939830.404363 507 503 605 374 376 370
4.403984 1329939830.421525 506 503 605 375 376 370
4.442554 1329939830.429363 506 503 605 374 377 370
4.442554 1329939830.437963 506 503 605 374 375 370
4.487291 1329939830.445760 506 503 605 375 377 370
4.487291 1329939830.454304 506 503 605 376 376 369
4.520560 1329939830.462782 507 503 605 375 376 370
4.520560 1329939830.471025 507 503 605 375 377 370
4.564455 1329939830.479498 507 503 605 374 376 371
4.564455 1329939830.487686 506 503 605 374 377 370
4.603699 1329939830.495708 506 503 605 375 377 370
4.603699 1329939830.504173 506 503 605 374 376 370
4.647996 1329939830.512814 507 503 605 375 376 370
4.647996 1329939830.521074 507 503 606 374 376 370
4.686997 1329939830.529491 506 502 605 374 376 369
4.686997 1329939830.537807 506 503 605 374 377 371
4.720347 1329939830.545903 506 503 606 374 376 370
4.720347 1329939830.554021 506 503 606 376 377 371
4.762053 1329939830.562679 506 502 605 375 377 370
4.762053 1329939830.570828 506 503 605 374 376 369
4.803846 1329939830.579501 506 502 605 374 376 371
4.803846 1329939830.587632 505 503 605 374 376 370
4.845404 1329939830.595594 506 503 605 375 375 371
4.845404 1329939830.604100 507 502 605 374 376 369
4.883245 1329939830.612701 507 503 606 373 376 370
4.883245 1329939830.627647 506 502 605 374 376 370
4.928567 1329939830.629666 506 503 605 374 377 370
4.928567 1329939830.637568 506 502 605 374 377 369
4.961484 1329939830.645638 505 502 605 374 377 371
4.961484 1329939830.654020 507 503 605 374 375 371
5.003469 1329939830.662625 507 502 605 374 377 370
5.003469 1329939830.670777 505 503 605 374 377 370
5.044858 1329939830.679263 505 502 605 375 379 370
5.044858 1329939830.687627 507 503 606 374 379 371
5.086844 1329939830.695629 507 503 605 377 383 369
5.086844 1329939830.704123 508 503 606 377 386 371
5.127985 1329939830.712713 507 503 605 377 388 370
5.127985 1329939830.721029 507 502 608 378 393 370
5.161503 1329939830.729879 506 502 605 378 395 369
5.161503 1329939830.737508 506 503 605 379 398 367
5.202896 1329939830.745554 509 502 605 379 400 366
5.202896 1329939830.753884 511 504 607 373 394 366
5.244791 1329939830.762485 510 506 605 377 396 362
5.244791 1329939830.770900 516 503 606 379 400 361
5.286639 1329939830.780350 514 500 605 378 402 365
5.286639 1329939830.787543 517 500 607 372 402 366
5.327878 1329939830.795629 518 505 610 371 396 366
5.327878 1329939830.803919 517 507 610 373 396 364
5.366167 1329939830.812277 517 508 617 379 395 364
5.366167 1329939830.820899 519 506 621 377 391 365
5.402730 1329939830.829072 519 507 622 375 381 365
5.402730 1329939830.837434 518 509 622 378 370 367
5.444597 1329939830.845511 515 507 622 382 367 368
5.444597 1329939830.853679 517 503 621 379 366 366
5.480758 1329939830.862353 518 504 619 379 362 365
5.480758 1329939830.870679 516 504 616 380 357 364
5.527886 1329939830.879139 513 504 613 379 358 364
5.527886 1329939830.888673 513 502 611 377 363 365
5.561045 1329939830.895482 515 502 610 374 369 369
5.561045 1329939830.903896 515 504 610 373 376 371
5.602821 1329939830.912444 514 505 612 377 383 372
5.602821 1329939830.920827 514 504 613 380 390 369
5.644336 1329939830.929007 516 501 615 376 394 366
5.644336 1329939830.946110 518 502 614 374 392 368
5.691107 1329939830.958649 522 506 613 376 386 367
5.691107 1329939830.961902 518 507 612 376 385 370
5.721483 1329939830.970667 520 505 611 374 383 371
5.721483 1329939830.979038 523 504 611 370 382 372
5.760771 1329939830.987170 524 502 610 369 373 370
5.760771 1329939830.995744 522 503 608 369 364 370
5.800405 1329939831.004307 517 502 605 362 361 369
5.800405 1329939831.011949 519 500 605 357 362 365
5.844668 1329939831.020576 518 498 604 357 363 363
5.844668 1329939831.028835 522 502 605 363 362 364
5.886203 1329939831.037232 519 501 605 373 360 363
5.886203 1329939831.045543 515 502 606 377 363 365
5.927580 1329939831.058892 513 500 603 377 367 364
5.927580 1329939831.061896 515 503 601 375 368 364
5.963111 1329939831.070612 514 506 601 375 366 366
5.963111 1329939831.079030 514 508 601 377 363 366
6.002724 1329939831.087236 509 507 600 372 366 364
6.002724 1329939831.095781 507 507 599 363 370 363
6.044775 1329939831.104044 512 506 600 359 374 362
6.044775 1329939831.112170 514 505 603 363 377 361
6.086206 1329939831.120381 512 508 599 368 380 364
6.086206 1329939831.128967 511 511 597 366 388 363
6.127683 1329939831.137194 508 504 597 360 397 361
6.127683 1329939831.145621 512 508 597 356 403 362
6.170236 1329939831.153830 520 508 597 362 401 364
6.170236 1329939831.162103 518 507 598 368 401 367
6.202930 1329939831.170292 516 506 599 369 403 364
6.202930 1329939831.179029 517 504 600 363 412 357
6.244928 1329939831.187149 517 503 600 362 422 358
6.244928 1329939831.195643 519 503 603 365 423 362
6.280566 1329939831.203732 520 501 606 371 416 362
6.280566 1329939831.217706 522 501 608 369 410 362
6.328624 1329939831.220071 524 506 607 368 403 366
6.328624 1329939831.228930 523 499 607 374 395 369
6.361161 1329939831.237221 530 501 609 385 387 370
6.361161 1329939831.245276 523 501 610 387 381 369
6.402776 1329939831.253932 520 497 608 386 372 371
6.402776 1329939831.261928 520 496 606 383 364 377
6.444724 1329939831.270196 516 498 607 386 363 384
6.444724 1329939831.278913 516 497 605 382 360 388
6.487111 1329939831.287036 515 496 602 377 356 390
6.487111 1329939831.295474 517 497 601 371 356 388
6.527437 1329939831.303695 517 494 599 371 360 387
6.527437 1329939831.311915 516 497 601 373 369 386
6.561088 1329939831.320158 520 498 597 378 374 383
6.561088 1329939831.329021 519 495 598 377 373 380
6.604565 1329939831.337173 516 487 604 375 373 376
6.604565 1329939831.345510 512 487 609 375 381 376
6.652391 1329939831.356856 512 492 612 377 387 376
6.652391 1329939831.371320 515 496 615 370 383 378
6.685800 1329939831.383197 519 498 620 359 378 379
6.685800 1329939831.388413 516 500 620 355 374 379
6.727529 1329939831.395407 516 503 617 354 374 384
6.727529 1329939831.403787 514 507 619 363 379 388
6.763397 1329939831.411975 514 507 619 369 379 389
6.763397 1329939831.420139 512 504 622 370 378 391
6.802404 1329939831.428692 512 504 624 371 375 396
6.802404 1329939831.437104 512 512 631 374 383 401
6.850798 1329939831.445350 513 514 634 374 388 400
6.850798 1329939831.453683 516 511 636 364 380 395
6.885755 1329939831.462017 517 514 639 353 365 391
6.885755 1329939831.470061 515 520 637 359 355 388
6.934044 1329939831.482423 516 521 638 373 349 385
6.934044 1329939831.486824 515 520 637 380 341 383
6.960214 1329939831.495134 515 521 638 378 330 384
6.960214 1329939831.503791 518 521 637 383 321 385
7.001831 1329939831.511980 521 520 634 384 316 385
7.001831 1329939831.527813 520 522 635 374 318 379
7.042869 1329939831.539512 516 524 631 362 309 373
7.042869 1329939831.545229 513 520 628 356 298 370
7.089587 1329939831.553483 516 520 623 351 290 368
7.089587 1329939831.569658 514 524 620 346 291 364
7.135521 1329939831.571689 517 525 615 345 301 360
7.135521 1329939831.578278 515 526 613 346 306 358
7.159949 1329939831.586857 513 528 612 351 304 353
7.159949 1329939831.600183 510 530 611 353 300 350
7.215454 1329939831.614338 510 524 604 352 293 346
7.215454 1329939831.616475 509 524 597 349 284 342
7.242792 1329939831.619904 503 527 592 349 283 340
7.242792 1329939831.632442 499 529 587 356 288 340
7.284209 1329939831.636842 499 528 585 363 291 340
7.284209 1329939831.644963 496 526 580 366 295 335
7.325623 1329939831.657820 492 527 575 366 299 334
7.325623 1329939831.661809 490 528 574 376 311 335
7.366604 1329939831.670124 489 527 572 388 323 333
7.366604 1329939831.679446 483 525 571 386 328 331
7.400015 1329939831.686698 483 527 568 377 332 328
7.400015 1329939831.695295 480 523 567 374 338 324
7.441503 1329939831.703639 482 518 566 376 346 324
7.441503 1329939831.712005 480 519 567 375 350 324
7.481937 1329939831.720102 479 517 568 368 354 321
7.481937 1329939831.738765 477 515 567 356 357 319
7.524697 1329939831.745089 480 512 570 351 361 323
7.524697 1329939831.753305 476 511 570 356 362 324
7.567914 1329939831.761958 476 512 570 359 358 325
7.567914 1329939831.770237 480 512 568 354 353 321
7.599578 1329939831.778418 481 508 565 347 354 320
7.599578 1329939831.786616 479 509 564 347 360 320
7.641351 1329939831.806939 476 512 564 350 363 316
7.641351 1329939831.811925 478 511 561 351 361 312
7.687172 1329939831.820136 478 509 558 346 362 307
7.687172 1329939831.828390 480 505 556 342 368 307
7.724591 1329939831.836797 480 508 556 346 377 307
7.724591 1329939831.844978 477 506 557 352 381 307
7.765956 1329939831.858631 475 498 555 350 383 307
7.765956 1329939831.861725 476 494 554 346 387 306
7.801953 1329939831.870095 475 492 553 353 394 308
7.801953 1329939831.878593 473 490 553 359 401 312
7.841478 1329939831.886577 476 489 553 361 408 315
7.841478 1329939831.894907 474 490 554 363 416 314
7.883121 1329939831.903170 474 487 556 365 422 312
7.883121 1329939831.911718 477 480 559 365 428 315
7.927475 1329939831.919975 481 478 561 364 436 320
7.927475 1329939831.928136 481 479 565 367 443 322
7.959278 1329939831.936690 481 471 571 365 448 324
7.959278 1329939831.944792 485 469 575 357 448 329
8.000998 1329939831.953451 485 473 580 357 447 332
8.000998 1329939831.961732 484 466 586 366 452 337
8.044104 1329939831.970180 486 461 588 364 453 343
8.044104 1329939831.978492 490 467 592 357 447 347
8.085369 1329939831.986729 495 478 595 358 446 348
8.085369 1329939831.995023 492 477 598 363 447 350
8.119357 1329939832.002994 496 474 602 370 454 350
8.119357 1329939832.016682 503 472 604 365 459 352
8.159835 1329939832.019836 505 473 606 363 455 356
8.159835 1329939832.028320 501 476 612 375 452 359
8.202249 1329939832.036580 503 474 615 380 461 362
8.202249 1329939832.044763 510 470 616 373 461 366
8.244190 1329939832.053246 514 475 620 373 456 369
8.244190 1329939832.068670 515 475 627 383 455 369
8.285451 1329939832.070996 517 467 628 386 450 374
8.285451 1329939832.078207 519 463 626 379 445 381
8.327159 1329939832.086408 523 471 624 376 442 383
8.327159 1329939832.094553 525 479 626 376 441 382
8.360495 1329939832.102969 528 472 627 380 438 386
8.360495 1329939832.111272 530 464 627 380 430 388
8.409202 1329939832.121436 531 464 625 374 423 391
8.409202 1329939832.128149 531 466 623 372 419 395
8.451551 1329939832.136117 526 465 625 373 420 399
8.451551 1329939832.144975 524 465 625 378 421 402
8.490969 1329939832.153011 526 468 630 387 428 405
8.490969 1329939832.161343 529 467 635 392 432 408
8.526421 1329939832.170244 531 463 638 395 428 413
8.526421 1329939832.177973 529 465 639 403 421 411
8.560027 1329939832.186166 531 468 644 410 419 408
8.560027 1329939832.194771 531 464 650 417 418 411
8.601871 1329939832.202985 534 460 653 421 411 420
8.601871 1329939832.211403 534 464 655 414 402 425
8.643516 1329939832.219979 534 465 660 408 401 427
8.643516 1329939832.228070 536 457 662 408 397 429
8.686753 1329939832.236223 539 459 665 404 386 434
8.686753 1329939832.244350 541 467 665 395 374 434
8.725060 1329939832.252943 541 471 663 390 367 433
8.725060 1329939832.261207 544 467 661 390 360 435
8.759424 1329939832.269491 548 464 658 386 351 438
8.759424 1329939832.277859 549 469 654 379 340 436
8.800370 1329939832.286156 549 477 651 374 331 435
8.800370 1329939832.294409 546 478 647 378 319 432
8.846393 1329939832.302787 550 474 643 384 311 432
8.846393 1329939832.311076 549 478 638 388 305 431
8.883346 1329939832.319477 548 477 632 394 298 432
8.883346 1329939832.327885 545 477 623 396 294 433
8.924450 1329939832.336133 541 480 614 395 295 431
8.924450 1329939832.344235 541 479 607 389 296 430
8.966068 1329939832.352888 538 476 602 385 298 429
8.966068 1329939832.360965 531 476 595 380 298 428
9.004378 1329939832.369380 530 479 590 376 301 427
9.004378 1329939832.377719 526 478 586 379 305 428
9.041158 1329939832.386133 521 477 580 380 309 428
9.041158 1329939832.394104 517 477 577 379 312 428
9.082366 1329939832.402634 514 474 574 381 317 428
9.082366 1329939832.411085 510 474 571 386 322 430
9.123969 1329939832.421564 505 477 568 385 325 434
9.123969 1329939832.427631 506 480 566 384 332 436
9.165176 1329939832.436033 506 477 566 383 339 435
9.165176 1329939832.444172 501 474 564 381 343 436
9.199238 1329939832.452729 496 474 562 380 345 436
9.199238 1329939832.460990 498 479 561 378 350 437
9.240136 1329939832.470480 497 483 560 376 355 437
9.240136 1329939832.477648 495 483 561 375 355 436
9.281605 1329939832.486031 493 481 559 378 355 438
9.281605 1329939832.494064 495 483 557 377 358 441
9.322887 1329939832.502697 495 487 556 375 366 444
9.322887 1329939832.510947 490 490 555 370 374 444
9.361357 1329939832.519278 489 494 556 369 380 443
9.361357 1329939832.527630 486 496 556 373 385 441
9.410813 1329939832.535919 487 494 557 375 391 438
9.410813 1329939832.543780 485 499 557 370 396 439
9.441940 1329939832.552643 482 506 559 372 399 436
9.441940 1329939832.565848 484 506 563 374 408 434
9.487026 1329939832.569028 485 506 564 371 415 433
9.487026 1329939832.577334 481 514 568 365 415 428
9.523216 1329939832.585839 481 517 572 360 418 426
9.523216 1329939832.593800 481 520 572 352 416 422
9.564800 1329939832.602294 481 522 574 347 416 418
9.564800 1329939832.611873 483 526 574 343 421 416
9.610207 1329939832.619041 486 530 577 340 428 415
9.610207 1329939832.627518 488 531 581 337 428 412
9.641385 1329939832.635764 488 529 584 340 429 409
9.641385 1329939832.643757 488 535 586 350 431 406
9.683401 1329939832.652286 491 539 586 363 434 402
9.683401 1329939832.660504 494 535 588 371 434 397
9.723346 1329939832.668698 494 530 590 373 437 393
9.723346 1329939832.677174 491 538 594 374 442 390
9.764993 1329939832.685383 495 543 595 374 444 385
9.764993 1329939832.693594 502 530 599 368 450 381
9.801664 1329939832.702236 507 532 602 366 454 376
9.801664 1329939832.710497 505 542 605 370 448 366
9.840123 1329939832.718878 506 543 605 381 435 358
9.840123 1329939832.727156 510 535 606 385 440 353
9.882593 1329939832.735526 513 530 609 384 447 348
9.882593 1329939832.743485 514 525 612 376 449 340
9.923812 1329939832.751949 512 527 617 363 448 338
9.923812 1329939832.762298 518 535 620 357 450 334
9.965432 1329939832.768805 526 535 623 361 453 327
9.965432 1329939832.778945 527 528 625 365 444 322
10.007219 1329939832.785167 525 520 628 367 432 325
10.007219 1329939832.793400 529 523 629 361 431 326
10.040380 1329939832.802032 538 531 631 361 437 319
10.040380 1329939832.810359 538 531 632 367 433 308
10.085339 1329939832.818636 531 517 634 376 424 305
10.085339 1329939832.826892 536 511 636 383 420 307
10.131145 1329939832.835130 542 520 638 385 420 300
10.131145 1329939832.843267 539 519 640 383 416 292
10.165162 1329939832.851710 539 510 639 378 407 293
10.165162 1329939832.865574 543 510 641 374 408 296
10.206899 1329939832.878869 545 517 643 369 412 291
10.206899 1329939832.885156 540 510 643 369 401 287
10.240143 1329939832.893519 541 497 641 374 385 288
10.240143 1329939832.901634 543 492 639 378 376 294
10.281886 1329939832.910179 546 502 638 378 374 297
10.281886 1329939832.918327 542 500 637 379 367 300
10.331420 1329939832.926781 539 489 636 383 357 307
10.331420 1329939832.934990 539 485 633 385 351 312
10.365405 1329939832.943456 539 487 630 381 350 316
10.365405 1329939832.951590 539 490 628 380 344 318
10.407129 1329939832.959957 536 490 626 387 336 325
10.407129 1329939832.968507 534 485 618 393 333 331
10.441581 1329939832.987241 535 483 610 395 334 338
10.441581 1329939832.993682 534 488 606 395 340 338
10.481644 1329939833.001485 532 489 601 392 345 339
10.481644 1329939833.009730 529 487 596 394 342 343
10.523555 1329939833.018321 528 487 588 397 339 348
10.523555 1329939833.026542 528 487 580 398 344 354
10.565377 1329939833.043301 531 492 576 395 352 357
10.565377 1329939833.053969 521 491 575 394 359 357
10.606811 1329939833.060015 512 487 574 391 354 355
10.606811 1329939833.070868 511 482 573 378 349 358
10.640349 1329939833.076402 514 485 574 362 349 365
10.640349 1329939833.084768 515 494 577 351 357 369
10.692860 1329939833.093218 512 499 585 347 373 371
10.692860 1329939833.101815 504 501 591 349 388 369
10.723315 1329939833.109913 505 502 594 358 393 365
10.723315 1329939833.118195 509 501 600 368 394 364
10.765347 1329939833.126537 512 505 606 381 401 367
10.765347 1329939833.134972 514 506 611 391 406 371
10.810488 1329939833.143089 517 504 614 396 400 372
10.810488 1329939833.157414 518 503 617 398 389 374
10.840195 1329939833.159573 517 501 617 398 379 375
10.840195 1329939833.168297 519 499 615 396 372 375
10.881758 1329939833.176701 521 498 614 385 365 374
10.881758 1329939833.184861 520 503 612 373 359 375
10.923457 1329939833.192894 517 508 611 364 357 374
10.923457 1329939833.201644 514 507 609 364 361 375
10.969907 1329939833.209869 513 505 606 364 366 374
10.969907 1329939833.218257 510 505 605 363 372 374
11.006569 1329939833.226690 510 505 604 366 374 373
11.006569 1329939833.235042 510 507 605 374 375 374
11.041949 1329939833.242910 511 507 604 380 376 372
11.041949 1329939833.251581 513 505 606 383 381 372
11.081128 1329939833.259856 513 505 607 384 383 372
11.081128 1329939833.268275 512 504 608 387 377 372
11.123115 1329939833.278627 514 504 607 385 374 372
11.123115 1329939833.284793 516 503 606 380 372 371
11.164322 1329939833.294418 515 505 605 378 370 372
11.164322 1329939833.306050 515 507 605 376 368 371
11.205938 1329939833.319319 515 507 606 377 367 372
11.205938 1329939833.326292 517 505 606 380 367 373
11.247672 1329939833.334783 516 503 606 378 368 371
11.247672 1329939833.342990 515 504 605 376 371 369
11.281131 1329939833.351492 512 507 605 375 370 370
11.281131 1329939833.359880 514 506 603 376 369 369
11.334319 1329939833.379130 513 503 603 376 369 369
11.334319 1329939833.384504 514 501 602 376 374 371
11.363727 1329939833.392964 513 503 602 376 377 373
11.363727 1329939833.401477 512 503 601 375 379 373
11.405640 1329939833.409893 513 503 601 372 380 373
11.405640 1329939833.417953 511 503 603 370 382 374
11.440242 1329939833.426438 512 505 604 368 385 370
11.440242 1329939833.434287 513 509 605 366 387 366
11.486090 1329939833.442893 514 509 607 367 388 366
11.486090 1329939833.451320 516 502 610 373 384 368
11.521861 1329939833.461961 518 502 613 377 378 372
11.521861 1329939833.467760 518 506 613 378 370 372
11.563877 1329939833.476271 517 509 611 379 364 371
11.563877 1329939833.484350 517 506 609 379 364 370
11.605745 1329939833.492863 515 502 606 380 361 371
11.605745 1329939833.501116 512 502 604 380 359 370
11.647040 1329939833.509817 512 504 603 379 359 372
11.647040 1329939833.517907 514 504 601 378 363 372
11.682309 1329939833.526388 514 503 600 378 366 372
11.682309 1329939833.538963 512 504 600 378 368 372
11.722116 1329939833.542757 510 505 601 382 371 370
11.722116 1329939833.550778 511 505 601 385 372 371
11.763266 1329939833.559604 510 503 601 389 373 373
11.763266 1329939833.568293 510 504 601 390 376 374
11.805379 1329939833.576029 512 504 603 389 381 373
11.805379 1329939833.584431 511 504 606 388 385 372
11.851185 1329939833.592846 511 504 608 386 384 372
11.851185 1329939833.600941 512 503 609 381 381 369
11.880143 1329939833.609828 512 501 609 377 375 368
11.880143 1329939833.620369 512 501 610 373 373 369
11.921853 1329939833.625793 512 502 610 372 373 372
11.921853 1329939833.634230 512 501 609 374 373 371
11.965194 1329939833.642801 512 500 608 373 373 370
11.965194 1329939833.650769 511 500 608 371 372 371
12.005175 1329939833.659607 509 501 607 368 370 371
12.005175 1329939833.667701 509 500 604 366 369 371
12.051602 1329939833.675983 509 499 602 366 368 371
12.051602 1329939833.684049 509 500 602 364 368 372
12.080028 1329939833.692573 507 503 600 365 370 372
12.080028 1329939833.700702 507 506 599 368 372 371
12.121710 1329939833.709475 507 507 596 370 371 371
12.121710 1329939833.717780 508 508 594 368 371 371
12.162975 1329939833.728507 507 509 592 368 367 373
12.162975 1329939833.734142 508 510 588 371 364 374
12.215223 1329939833.742735 509 510 585 373 363 375
12.215223 1329939833.750770 512 510 582 371 364 373
12.246561 1329939833.759213 512 510 578 361 365 369
12.246561 1329939833.767407 513 512 575 351 369 367
12.280327 1329939833.777449 511 517 574 348 375 366
12.280327 1329939833.789183 510 524 575 356 384 365
12.321548 1329939833.794403 509 527 574 369 391 363
12.321548 1329939833.800620 510 524 574 379 404 362
12.363080 1329939833.810064 512 528 577 382 417 360
12.363080 1329939833.817738 515 529 582 388 432 355
12.405479 1329939833.825591 517 534 587 398 440 347
12.405479 1329939833.834391 519 537 592 408 448 338
12.439352 1329939833.842754 524 531 598 409 458 331
12.439352 1329939833.850687 525 529 602 403 457 323
12.480545 1329939833.859025 528 530 604 395 447 316
12.480545 1329939833.867477 528 529 608 398 437 312
12.522399 1329939833.875546 525 528 612 407 435 309
12.522399 1329939833.903588 526 528 614 407 431 301
12.564117 1329939833.914461 534 527 616 396 421 294
12.564117 1329939833.917278 538 524 621 396 420 290
12.606115 1329939833.930487 542 517 627 407 430 287
12.606115 1329939833.934015 547 519 630 415 435 282
12.639540 1329939833.942216 549 519 635 412 432 277
12.639540 1329939833.950910 551 509 641 413 429 276
12.686783 1329939833.959149 555 497 648 422 427 277
12.686783 1329939833.967260 561 493 653 418 416 278
12.735766 1329939833.975544 565 494 659 401 400 277
12.735766 1329939833.984065 567 492 665 392 392 276
12.764382 1329939833.991929 574 485 667 392 388 277
12.764382 1329939834.000842 579 479 667 391 385 280
12.805923 1329939834.009174 575 476 667 386 372 284
12.805923 1329939834.017410 584 472 666 384 357 290
12.839297 1329939834.025800 583 474 665 387 350 301
12.839297 1329939834.033926 580 474 662 392 340 311
12.880561 1329939834.042083 578 472 660 398 321 319
12.880561 1329939834.050671 576 469 654 398 304 324
12.922885 1329939834.059120 574 471 645 399 301 327
12.922885 1329939834.067244 566 469 639 403 305 328
12.959770 1329939834.075698 562 468 634 401 297 331
12.959770 1329939834.083760 553 467 630 400 282 336
13.005437 1329939834.092243 550 467 622 403 275 338
13.005437 1329939834.100479 550 465 613 406 280 337
13.039148 1329939834.114072 547 462 609 402 290 341
13.039148 1329939834.117026 538 464 605 398 289 347
13.080804 1329939834.125817 532 468 605 402 283 354
13.080804 1329939834.142475 534 467 601 407 279 360
13.122260 1329939834.144400 534 465 596 404 279 366
13.122260 1329939834.150661 529 467 594 401 275 373
13.163274 1329939834.164425 524 464 589 405 271 382
13.163274 1329939834.167199 521 460 582 409 271 389
13.210455 1329939834.180415 517 463 575 406 276 395
13.210455 1329939834.183765 511 466 571 400 281 398
13.246155 1329939834.192127 511 467 564 393 287 405
13.246155 1329939834.200902 507 466 560 390 295 413
13.279449 1329939834.223088 503 465 556 386 303 415
13.279449 1329939834.225570 501 465 553 381 317 415
13.319899 1329939834.234120 498 467 551 375 329 415
13.319899 1329939834.242366 498 466 550 371 337 415
13.361359 1329939834.250609 495 468 551 371 345 416
13.361359 1329939834.259067 493 471 553 369 350 418
13.411213 1329939834.267539 491 470 555 366 351 422
13.411213 1329939834.275941 489 473 557 369 353 428
13.443702 1329939834.284200 490 478 555 371 354 432
13.443702 1329939834.292546 487 480 557 373 354 434
13.485331 1329939834.300475 487 485 555 368 359 436
13.485331 1329939834.309094 485 491 554 364 361 436
13.535723 1329939834.317543 483 491 555 362 366 436
13.535723 1329939834.330434 485 492 555 355 372 435
13.566726 1329939834.334132 485 496 554 354 371 434
13.566726 1329939834.342527 483 503 552 359 370 431
13.601546 1329939834.350440 483 508 553 359 375 429
13.601546 1329939834.359037 487 505 549 360 379 434
13.645093 1329939834.367548 489 505 548 362 383 438
13.645093 1329939834.380181 485 514 546 365 387 434
13.685387 1329939834.385966 483 518 546 372 395 432
13.685387 1329939834.392322 489 511 548 385 411 428
13.719155 1329939834.400399 496 504 550 389 423 429
13.719155 1329939834.408963 493 513 554 389 429 429
13.761000 1329939834.417567 491 525 558 394 432 430
13.761000 1329939834.425638 495 520 565 404 440 427
13.802834 1329939834.434431 504 509 569 406 460 424
13.802834 1329939834.442232 506 509 573 403 473 427
13.844788 1329939834.450341 505 520 579 403 478 426
13.844788 1329939834.458936 508 518 586 404 485 414
13.889695 1329939834.467567 520 508 592 390 495 405
13.889695 1329939834.477435 522 508 600 371 501 410
13.919613 1329939834.484186 519 517 605 361 496 417
13.919613 1329939834.492223 527 523 612 361 493 417
13.965807 1329939834.500397 535 517 619 358 504 413
13.965807 1329939834.509087 536 511 626 349 507 418
14.003050 1329939834.521541 528 513 633 340 495 424
14.003050 1329939834.528568 536 508 639 337 479 424
14.044937 1329939834.534245 549 508 643 332 471 428
14.044937 1329939834.542464 554 511 646 329 458 430
14.086160 1329939834.550578 549 516 649 339 440 428
14.086160 1329939834.570078 559 524 651 350 430 427
14.119385 1329939834.592996 567 527 651 359 427 432
14.119385 1329939834.604332 566 524 653 371 431 436
14.160986 1329939834.609489 571 531 657 382 431 434
14.160986 1329939834.617427 577 538 667 378 438 432
14.202977 1329939834.625775 573 534 672 366 435 428
14.202977 1329939834.634367 564 524 672 356 408 428
14.244496 1329939834.642462 570 524 670 344 392 429
14.244496 1329939834.650668 572 530 668 339 380 429
14.285901 1329939834.659257 571 534 668 348 364 426
14.285901 1329939834.667778 566 532 669 362 353 427
14.319272 1329939834.675444 559 528 667 380 349 428
14.319272 1329939834.684119 561 532 661 396 340 428
14.361012 1329939834.703384 561 533 658 403 335 427
14.361012 1329939834.708983 557 530 657 398 331 428
14.410926 1329939834.717340 552 526 656 391 320 429
14.410926 1329939834.725842 547 525 654 386 305 432
14.440948 1329939834.733834 551 526 645 375 287 430
14.440948 1329939834.742361 554 524 639 360 271 427
14.486035 1329939834.751577 552 526 632 352 259 423
14.486035 1329939834.758875 550 536 627 350 247 418
14.519125 1329939834.767501 545 538 621 352 233 406
14.519125 1329939834.775776 544 538 611 352 223 395
14.560583 1329939834.784001 538 542 604 354 218 387
14.560583 1329939834.792249 530 543 598 358 223 382
14.601756 1329939834.800665 525 545 590 361 229 378
14.601756 1329939834.809334 520 547 583 361 237 373
14.647856 1329939834.817173 512 546 577 361 238 363
14.647856 1329939834.825548 510 547 572 358 244 352
14.685309 1329939834.834090 505 547 566 351 252 345
14.685309 1329939834.842189 499 542 561 345 260 336
14.726581 1329939834.850625 496 536 557 345 271 329
14.726581 1329939834.859021 495 536 552 346 280 324
14.762046 1329939834.867662 489 534 548 347 288 319
14.762046 1329939834.875838 489 531 545 350 301 315
14.801062 1329939834.883869 488 533 544 351 315 314
14.801062 1329939834.892247 485 532 544 354 324 311
14.843043 1329939834.909886 480 526 544 358 331 309
14.843043 1329939834.917352 479 525 544 359 345 306
14.884497 1329939834.925335 478 522 544 363 353 303
14.884497 1329939834.934021 473 520 548 366 358 299
14.926284 1329939834.942268 471 517 549 362 364 295
14.926284 1329939834.950364 476 518 550 353 370 295
14.959305 1329939834.960243 472 518 552 351 375 293
14.959305 1329939834.967491 471 510 553 354 380 288
15.000979 1329939834.975596 478 507 550 347 385 286
15.000979 1329939834.984013 477 500 552 331 392 288
15.042667 1329939834.992213 482 493 554 324 401 288
15.042667 1329939835.000489 482 498 558 339 414 287
15.084360 1329939835.008955 481 499 558 357 422 289
15.084360 1329939835.017310 483 492 557 351 425 292
15.126496 1329939835.027461 484 484 561 338 432 295
15.126496 1329939835.033800 488 483 564 336 443 300
15.159693 1329939835.042087 492 483 569 338 456 301
15.159693 1329939835.050299 492 483 573 331 458 305
15.210177 1329939835.059060 492 481 579 323 457 311
15.210177 1329939835.075171 494 476 584 331 461 315
15.243756 1329939835.095515 507 474 587 343 463 319
15.243756 1329939835.100670 510 484 592 346 466 325
15.285188 1329939835.108704 505 490 600 353 469 332
15.285188 1329939835.116951 508 486 603 363 466 333
15.326936 1329939835.125473 518 481 607 365 469 330
15.326936 1329939835.133723 517 487 613 360 471 333
15.366824 1329939835.142188 511 493 620 359 462 343
15.366824 1329939835.150454 515 485 624 364 448 348
15.402433 1329939835.158643 529 478 626 364 446 344
15.402433 1329939835.169305 529 482 630 361 449 345
15.444068 1329939835.175345 519 492 635 360 439 353
15.444068 1329939835.186225 522 496 636 370 422 357
15.485353 1329939835.192046 527 493 638 382 419 354
15.485353 1329939835.200437 528 488 638 386 424 354
15.527836 1329939835.208649 524 487 639 382 423 361
15.527836 1329939835.217062 521 492 643 374 420 365
15.561271 1329939835.225297 519 491 646 372 418 363
15.561271 1329939835.244670 519 487 646 372 416 364
15.602002 1329939835.257031 517 488 644 371 407 372
15.602002 1329939835.259838 519 491 642 366 392 379
15.639319 1329939835.273649 524 493 640 366 383 384
15.639319 1329939835.278738 526 496 637 367 377 385
15.679157 1329939835.283566 524 494 631 365 368 382
15.679157 1329939835.291714 522 493 626 364 359 379
15.719025 1329939835.302263 520 497 623 361 354 377
15.719025 1329939835.308632 516 501 618 363 353 377
15.760655 1329939835.316481 513 500 612 370 349 380
15.760655 1329939835.325317 517 498 605 371 347 384
15.802101 1329939835.333623 518 499 604 369 354 387
15.802101 1329939835.341846 518 504 605 363 365 385
15.843906 1329939835.357022 517 507 606 356 377 384
15.843906 1329939835.359671 511 511 602 354 384 381
15.880761 1329939835.366799 509 508 603 359 382 382
15.880761 1329939835.374948 512 504 605 354 378 380
15.919298 1329939835.383148 513 502 607 355 382 377
15.919298 1329939835.391061 513 508 608 360 385 378
15.960340 1329939835.399705 516 508 609 366 382 380
15.960340 1329939835.408234 511 507 609 373 374 382
16.004296 1329939835.416215 511 506 610 378 369 384
16.004296 1329939835.424735 514 510 607 381 368 388
16.043628 1329939835.433080 515 513 605 382 370 390
16.043628 1329939835.441203 518 513 604 381 374 392
16.085618 1329939835.449563 516 508 605 381 379 389
16.085618 1329939835.457980 516 505 604 381 383 384
16.127168 1329939835.465881 514 504 605 377 388 382
16.127168 1329939835.474637 514 506 604 371 392 381
16.160375 1329939835.482967 518 510 601 371 397 382
16.160375 1329939835.491138 508 514 605 377 402 380
16.201719 1329939835.499739 516 507 609 376 408 381
16.201719 1329939835.512485 520 503 607 374 407 368
16.250507 1329939835.515942 513 507 610 375 398 361
16.250507 1329939835.524562 513 508 613 378 391 367
16.285054 1329939835.532895 521 506 614 382 388 373
16.285054 1329939835.541243 521 505 613 385 379 379
16.320690 1329939835.558348 523 504 614 390 363 383
16.320690 1329939835.566253 524 509 612 392 350 385
16.359904 1329939835.575830 527 513 610 390 347 383
16.359904 1329939835.582813 527 514 607 382 355 378
16.401460 1329939835.598988 525 511 604 378 359 373
16.401460 1329939835.600871 521 509 603 383 360 368
16.443388 1329939835.616434 516 505 600 393 362 370
16.443388 1329939835.638231 514 503 601 395 369 371
16.485065 1329939835.649159 516 506 601 389 374 370
16.485065 1329939835.657460 515 509 602 386 375 368
16.520819 1329939835.665582 515 508 603 388 377 368
16.520819 1329939835.673626 515 506 604 386 377 369
16.560189 1329939835.682339 516 504 603 381 376 371
16.560189 1329939835.690682 518 503 603 376 374 372
16.601395 1329939835.698612 518 502 602 374 375 374
16.601395 1329939835.707130 519 505 603 372 378 374
16.647558 1329939835.715332 519 506 604 366 381 373
16.647558 1329939835.723416 519 506 605 362 379 372
16.696080 1329939835.731930 519 504 606 360 377 369
16.696080 1329939835.740224 518 505 607 363 378 368
16.726143 1329939835.748492 518 506 607 365 379 367
16.726143 1329939835.756492 517 504 607 368 376 369
16.763995 1329939835.764606 517 503 607 368 369 370
16.763995 1329939835.772880 517 504 606 367 365 371
16.801241 1329939835.781254 517 504 606 368 366 370
16.801241 1329939835.789494 518 505 606 368 369 371
16.843253 1329939835.797807 517 504 605 369 371 372
16.843253 1329939835.806132 516 504 605 372 375 373
16.890611 1329939835.814519 517 507 605 373 376 372
16.890611 1329939835.822815 516 507 605 373 375 371
16.925931 1329939835.831225 518 504 606 374 372 372
16.925931 1329939835.839434 517 504 606 375 369 371
16.967848 1329939835.848931 519 504 606 375 368 373
16.967848 1329939835.856023 516 502 606 375 368 373
17.001258 1329939835.864357 516 506 606 379 363 376
17.001258 1329939835.872711 514 509 606 383 359 375
17.042518 1329939835.880914 513 509 603 387 357 371
17.042518 1329939835.889210 516 508 601 388 358 370
17.089243 1329939835.904756 513 507 599 388 359 370
17.089243 1329939835.906018 514 506 596 386 359 373
17.125252 1329939835.914349 515 506 593 385 364 374
17.125252 1329939835.922616 514 504 590 386 372 372
17.167403 1329939835.930909 512 507 589 389 379 374
17.167403 1329939835.939090 512 508 588 389 383 375
17.200824 1329939835.947553 510 509 587 389 383 376
17.200824 1329939835.960680 511 510 585 385 385 375
17.242815 1329939835.964917 513 514 584 381 386 373
17.242815 1329939835.972413 514 518 581 378 391 369
17.283937 1329939835.980984 515 521 579 375 395 365
17.283937 1329939835.990762 514 526 576 378 401 365
17.326248 1329939835.997330 513 535 573 384 406 364
17.326248 1329939836.014545 513 541 573 385 408 361
17.367480 1329939836.022380 513 545 574 392 415 356
17.367480 1329939836.030797 515 550 577 403 426 346
17.400910 1329939836.038962 513 558 580 404 436 329
17.400910 1329939836.047386 514 569 589 398 446 311
17.442747 1329939836.055854 520 562 606 395 459 292
17.442747 1329939836.064176 529 551 629 394 469 279
17.484241 1329939836.074037 539 556 652 385 469 270
17.484241 1329939836.080623 556 547 675 374 470 258
17.525579 1329939836.090073 574 524 696 374 476 250
17.525579 1329939836.100114 587 508 713 380 468 246
17.562088 1329939836.110085 597 499 728 395 450 249
17.562088 1329939836.114170 602 488 735 424 427 254
17.600649 1329939836.122117 601 463 734 442 390 263
17.600649 1329939836.130756 603 448 727 446 337 278
17.642970 1329939836.138835 597 447 714 438 294 290
17.642970 1329939836.147421 591 440 697 429 264 301
17.702901 1329939836.155687 589 434 679 414 246 308
17.702901 1329939836.172122 584 433 662 396 236 314
17.720743 1329939836.172671 580 430 645 385 231 319
17.720743 1329939836.180798 573 425 628 379 231 328
17.759319 1329939836.188851 569 425 616 369 234 337
17.759319 1329939836.197396 560 434 606 362 240 350
17.800953 1329939836.205585 555 434 596 365 241 363
17.800953 1329939836.224725 549 428 584 366 243 377
17.842454 1329939836.245310 545 427 571 365 239 391
17.842454 1329939836.256180 546 436 560 357 240 401
17.883500 1329939836.264388 538 443 550 352 245 401
17.883500 1329939836.272638 533 447 538 354 244 405
17.920589 1329939836.281126 534 446 521 355 236 408
17.920589 1329939836.289501 532 448 508 345 238 415
17.965675 1329939836.297595 529 454 497 338 252 425
17.965675 1329939836.305987 528 460 487 343 272 436
17.999087 1329939836.314495 525 464 484 347 298 448
17.999087 1329939836.325086 528 473 481 349 327 456
18.042065 1329939836.331478 523 483 480 355 352 463
18.042065 1329939836.350294 520 488 481 365 376 469
18.081819 1329939836.356640 522 495 485 375 401 472
18.081819 1329939836.365499 519 501 493 374 425 475
18.123836 1329939836.373643 517 503 504 374 451 479
18.123836 1329939836.382105 521 499 514 388 465 486
18.175199 1329939836.390342 529 498 526 408 478 493
18.175199 1329939836.399061 534 512 540 409 492 496
18.198947 1329939836.407460 536 520 557 398 504 503
18.198947 1329939836.420408 544 518 570 392 502 513
18.240736 1329939836.423990 556 509 586 388 499 518
18.240736 1329939836.432352 572 521 601 382 511 518
18.290577 1329939836.441201 579 533 624 374 530 519
18.290577 1329939836.449695 591 534 648 376 544 523
18.323873 1329939836.457881 596 540 672 376 548 526
18.323873 1329939836.467024 599 551 697 357 538 524
18.365605 1329939836.475285 599 558 723 343 511 520
18.365605 1329939836.483358 601 562 741 345 475 522
18.399200 1329939836.491795 598 572 749 350 435 523
18.399200 1329939836.500401 594 583 750 349 389 509
18.441175 1329939836.508378 586 583 748 359 351 496
18.441175 1329939836.516908 580 586 738 381 326 492
18.482340 1329939836.529088 569 588 726 405 304 487
18.482340 1329939836.533188 561 588 712 417 282 475
18.523306 1329939836.542097 554 591 699 423 262 459
18.523306 1329939836.550033 545 594 684 436 250 448
18.565315 1329939836.558458 542 582 667 445 239 437
18.565315 1329939836.582671 542 573 650 438 231 429
18.600187 1329939836.585940 539 571 634 424 226 417
18.600187 1329939836.591611 533 568 620 417 221 406
18.640065 1329939836.600038 528 563 607 415 217 391
18.640065 1329939836.608610 522 560 597 407 217 375
18.681635 1329939836.616689 517 558 587 395 219 360
18.681635 1329939836.625129 516 556 578 387 228 345
18.722669 1329939836.633505 510 551 573 389 235 334
18.722669 1329939836.641710 506 547 568 394 245 322
18.763951 1329939836.650327 504 546 566 396 259 317
18.763951 1329939836.658422 503 544 561 394 267 314
18.805579 1329939836.667055 503 542 555 387 269 310
18.805579 1329939836.675356 504 538 547 376 268 308
18.839618 1329939836.688018 506 532 536 363 267 304
18.839618 1329939836.691645 506 522 528 352 272 300
18.880587 1329939836.699909 504 513 523 340 286 298
18.880587 1329939836.708311 506 513 520 330 303 290
18.932587 1329939836.717064 500 507 519 323 320 285
18.932587 1329939836.725222 499 501 518 318 333 284
18.964310 1329939836.733493 500 491 521 307 351 283
18.964310 1329939836.741609 501 487 524 301 374 277
19.010745 1329939836.750031 498 480 526 303 389 274
19.010745 1329939836.758252 502 469 531 306 404 277
19.039155 1329939836.766733 502 467 538 304 424 284
19.039155 1329939836.775091 502 471 547 304 438 292
19.080883 1329939836.783418 499 466 557 308 444 301
19.080883 1329939836.794231 506 453 564 309 452 307
19.119476 1329939836.809826 510 450 577 308 470 307
19.119476 1329939836.832024 502 462 591 318 477 312
19.166242 1329939836.835650 493 464 602 338 469 325
19.166242 1329939836.841656 502 460 607 353 456 336
19.219120 1329939836.850036 511 459 610 353 456 343
19.219120 1329939836.858100 504 466 616 342 462 349
19.242229 1329939836.874543 498 471 621 338 467 355
19.242229 1329939836.898607 502 471 624 349 464 355
19.279377 1329939836.913818 509 479 628 355 468 356
19.279377 1329939836.917242 503 485 635 351 473 366
19.323650 1329939836.924847 500 483 641 348 471 373
19.323650 1329939836.932740 505 482 645 352 456 374
19.364653 1329939836.941375 516 485 647 355 440 371
19.364653 1329939836.949339 515 488 648 353 428 374
19.407238 1329939836.958041 512 492 646 349 416 378
19.407238 1329939836.966523 511 501 642 349 401 376
19.446411 1329939836.974843 514 506 636 361 395 372
19.446411 1329939836.982905 515 502 632 380 396 369
19.490742 1329939836.994821 513 495 629 393 401 372
19.490742 1329939836.999473 515 489 625 397 399 376
19.523436 1329939837.007944 517 487 623 395 398 378
19.523436 1329939837.016379 518 487 623 387 401 377
19.565114 1329939837.024777 517 486 621 376 396 381
19.565114 1329939837.032645 515 492 622 361 389 388
19.606596 1329939837.043685 514 503 620 345 382 386
19.606596 1329939837.049334 518 507 620 336 380 378
19.640313 1329939837.057898 519 504 619 336 384 371
19.640313 1329939837.066361 523 499 618 340 387 368
19.693808 1329939837.084938 523 499 617 351 385 366
19.693808 1329939837.109582 521 501 616 366 382 365
19.729367 1329939837.133553 520 500 613 382 379 367
19.729367 1329939837.147837 520 499 611 392 376 370
19.764665 1329939837.151194 519 499 608 394 371 372
19.764665 1329939837.157125 520 499 605 399 364 371
19.806548 1329939837.165216 520 499 601 396 362 370
19.806548 1329939837.173827 521 498 599 388 367 369
19.839738 1329939837.182360 518 498 598 380 370 367
19.839738 1329939837.199163 521 499 598 376 371 368
19.881407 1329939837.220684 522 497 600 373 379 370
19.881407 1329939837.223280 519 498 603 373 387 373
19.926871 1329939837.231634 518 502 607 376 392 374
19.926871 1329939837.239646 518 504 609 380 393 375
19.970763 1329939837.247954 519 501 610 381 391 377
19.970763 1329939837.256371 521 500 611 380 388 378
20.006258 1329939837.269149 523 501 612 379 384 379
20.006258 1329939837.273033 522 499 612 377 380 375
20.039750 1329939837.281669 522 496 610 374 371 372
20.039750 1329939837.289618 522 496 607 373 366 369
20.084248 1329939837.297584 522 498 606 372 366 368
20.084248 1329939837.306158 521 498 605 373 367 370
20.122772 1329939837.318422 519 496 604 376 370 372
20.122772 1329939837.325467 519 496 603 376 371 373
20.164482 1329939837.330943 519 498 603 375 374 376
20.164482 1329939837.338968 518 500 606 372 380 377
20.209001 1329939837.347310 518 499 607 372 382 378
20.209001 1329939837.355800 518 499 607 372 379 378
20.239759 1329939837.364214 520 502 606 370 376 379
20.239759 1329939837.372433 520 502 606 370 376 377
20.282975 1329939837.381134 521 501 605 368 376 376
20.282975 1329939837.388938 520 501 606 368 373 375
20.324499 1329939837.397108 520 502 606 369 372 374
20.324499 1329939837.405725 520 502 604 371 372 375
20.363985 1329939837.414059 519 502 603 373 371 374
20.363985 1329939837.427198 520 503 602 374 372 375
20.399218 1329939837.430619 518 503 602 377 371 375
20.399218 1329939837.438892 519 502 602 379 374 375
20.460143 1329939837.446819 520 499 603 378 378 374
20.460143 1329939837.455430 519 498 604 378 380 376
20.480675 1329939837.464043 519 501 605 379 379 374
20.480675 1329939837.471981 520 502 606 381 380 372
20.522242 1329939837.480868 521 500 608 379 384 371
20.522242 1329939837.488509 520 501 609 376 385 369
20.564237 1329939837.496678 520 501 610 376 379 367
20.564237 1329939837.505210 519 502 610 374 372 367
20.603789 1329939837.513511 520 500 608 374 369 368
20.603789 1329939837.524313 521 501 606 375 368 371
20.639139 1329939837.530041 520 502 606 374 368 370
20.639139 1329939837.538426 521 500 605 370 368 369
20.680641 1329939837.546874 520 498 604 369 371 369
20.680641 1329939837.555400 519 503 605 368 373 371
20.721110 1329939837.563496 518 506 606 372 374 370
20.721110 1329939837.575417 518 504 606 375 374 370
20.763902 1329939837.579928 519 501 605 375 373 371
20.763902 1329939837.588095 520 501 602 371 372 370
20.805703 1329939837.596653 521 501 603 371 374 371
20.805703 1329939837.604795 520 502 604 374 374 373
20.839042 1329939837.613385 519 502 603 375 374 370
20.839042 1329939837.622038 520 503 602 371 372 369
20.880536 1329939837.629582 520 504 601 368 370 367
20.880536 1329939837.638189 520 507 598 367 368 367
20.922342 1329939837.646026 520 509 595 369 365 368
20.922342 1329939837.654480 520 512 591 369 366 368
20.963824 1329939837.662981 520 513 586 366 370 366
20.963824 1329939837.671038 519 518 582 361 372 366
21.005922 1329939837.679778 517 525 580 357 375 365
21.005922 1329939837.687586 517 530 579 356 381 361
21.039213 1329939837.695849 518 533 578 352 389 357
21.039213 1329939837.704450 521 535 579 352 398 350
21.080719 1329939837.712858 522 539 582 351 407 346
21.080719 1329939837.721046 522 545 585 352 414 340
21.122346 1329939837.729487 523 551 592 360 422 332
21.122346 1329939837.737642 525 552 596 369 428 319
21.164061 1329939837.745848 528 550 602 375 427 308
21.164061 1329939837.754131 530 551 609 378 429 299
21.207548 1329939837.762926 528 556 617 388 433 290
21.207548 1329939837.770822 531 552 626 394 432 284
21.239125 1329939837.784319 536 545 634 390 436 279
21.239125 1329939837.787426 543 540 646 383 440 274
21.289266 1329939837.795885 550 533 660 379 442 268
21.289266 1329939837.804350 558 523 673 374 433 264
21.319731 1329939837.812745 566 522 682 368 422 265
21.319731 1329939837.820883 571 523 695 371 417 265
21.367154 1329939837.833643 578 512 706 393 408 268
21.367154 1329939837.854713 587 498 712 420 389 274
21.405731 1329939837.864815 590 492 713 434 359 276
21.405731 1329939837.870922 584 485 708 442 320 280
21.440417 1329939837.879458 581 475 697 441 279 283
21.440417 1329939837.887795 579 469 683 434 250 289
21.489020 1329939837.896040 573 462 665 431 238 292
21.489020 1329939837.909883 567 455 645 424 235 299
21.522608 1329939837.912524 558 451 627 413 241 308
21.522608 1329939837.920811 548 449 614 406 249 318
21.564038 1329939837.929382 541 450 607 396 261 327
21.564038 1329939837.937543 535 451 603 384 262 336
21.605313 1329939837.946089 530 448 593 380 255 348
21.605313 1329939837.954188 527 446 584 386 252 358
21.661690 1329939837.962623 522 446 572 393 255 371
21.661690 1329939837.970864 520 451 562 395 261 381
21.685844 1329939837.979316 515 457 558 397 272 388
21.685844 1329939837.987637 514 457 550 404 277 396
21.723254 1329939837.995949 508 456 544 402 280 400
21.723254 1329939838.004071 506 455 537 392 282 407
21.764439 1329939838.012677 506 455 527 386 283 415
21.764439 1329939838.020895 504 460 519 383 291 423
21.802875 1329939838.033081 504 465 515 379 309 431
21.802875 1329939838.037571 506 470 512 374 328 437
21.844141 1329939838.045910 505 473 510 362 345 442
21.844141 1329939838.054272 505 477 508 347 358 448
21.885794 1329939838.064205 504 482 508 339 370 451
21.885794 1329939838.071058 501 490 511 338 384 456
21.919421 1329939838.079622 503 496 514 340 394 461
21.919421 1329939838.087937 503 498 516 342 401 465
21.961084 1329939838.096125 501 506 519 344 411 467
21.961084 1329939838.106273 501 511 525 346 421 463
22.002791 1329939838.117402 502 513 532 356 432 464
22.002791 1329939838.122031 510 515 538 368 437 466
22.045008 1329939838.129462 514 523 544 370 442 465
22.045008 1329939838.137733 508 533 552 370 454 464
22.086548 1329939838.146239 511 535 560 375 467 461
22.086548 1329939838.154940 523 529 571 377 474 463
22.121890 1329939838.162748 534 530 577 381 472 464
22.121890 1329939838.171060 534 528 587 372 471 466
22.168850 1329939838.179422 531 532 595 357 477 466
22.168850 1329939838.187810 532 537 607 353 482 471
22.203407 1329939838.196378 534 540 621 365 484 479
22.203407 1329939838.204671 546 532 630 362 479 481
22.244553 1329939838.213054 548 541 651 349 480 473
22.244553 1329939838.224621 543 561 671 348 475 471
22.286498 1329939838.229759 545 558 683 365 455 483
22.286498 1329939838.237906 555 555 687 371 433 490
22.320033 1329939838.246782 558 559 688 360 408 483
22.320033 1329939838.254679 557 567 685 357 388 466
22.361374 1329939838.263089 555 566 679 368 373 452
22.361374 1329939838.279028 552 559 673 381 364 447
22.403253 1329939838.290029 547 557 666 389 352 439
22.403253 1329939838.296727 544 555 658 393 340 431
22.444474 1329939838.305419 543 553 651 405 338 427
22.444474 1329939838.313329 542 549 647 416 344 424
22.486719 1329939838.321665 537 548 644 420 351 421
22.486719 1329939838.330251 534 547 643 422 349 419
22.519821 1329939838.340172 531 543 644 420 346 417
22.519821 1329939838.346736 533 540 645 418 346 415
22.561452 1329939838.357030 531 540 646 416 342 415
22.561452 1329939838.368800 527 537 647 413 335 416
22.605006 1329939838.371349 530 536 646 405 327 413
22.605006 1329939838.380146 530 536 644 399 321 410
22.644633 1329939838.388215 529 535 642 395 310 409
22.644633 1329939838.396748 524 534 636 399 296 408
22.683259 1329939838.405279 521 532 627 404 285 406
22.683259 1329939838.413623 524 532 617 409 281 405
22.722345 1329939838.421707 524 534 610 405 283 396
22.722345 1329939838.430136 517 537 607 399 293 390
22.760966 1329939838.438250 511 541 603 398 303 387
22.760966 1329939838.446770 506 534 601 398 306 385
22.808345 1329939838.455241 508 530 597 395 311 382
22.808345 1329939838.463282 508 533 593 392 313 378
22.843964 1329939838.472041 506 533 592 393 313 373
22.843964 1329939838.479924 504 529 590 398 315 369
22.885122 1329939838.496985 500 528 587 402 313 369
22.885122 1329939838.508173 499 526 583 405 309 366
22.924599 1329939838.513321 495 522 578 405 310 364
22.924599 1329939838.521609 497 521 574 406 318 364
22.959904 1329939838.529803 497 523 571 409 326 363
22.959904 1329939838.539077 499 525 569 411 335 358
23.001362 1329939838.553866 498 526 569 413 340 353
23.001362 1329939838.567115 497 524 569 413 347 349
23.043364 1329939838.571589 496 520 569 407 347 343
23.043364 1329939838.579871 497 520 568 402 342 341
23.088828 1329939838.588068 498 518 566 400 340 337
23.088828 1329939838.596430 498 513 562 393 336 337
23.126035 1329939838.604731 496 510 560 386 341 335
23.126035 1329939838.613147 494 511 558 380 350 328
23.159730 1329939838.621748 491 508 558 378 358 320
23.159730 1329939838.629823 491 499 557 372 366 313
23.201012 1329939838.638329 496 494 556 357 370 311
23.201012 1329939838.646522 494 496 558 344 374 308
23.243205 1329939838.654779 488 495 561 340 382 306
23.243205 1329939838.663057 490 489 563 339 392 303
23.284701 1329939838.671553 490 486 565 334 399 303
23.284701 1329939838.679741 490 484 571 328 405 305
23.326825 1329939838.688055 495 485 575 327 410 309
23.326825 1329939838.696287 496 481 579 334 413 310
23.360086 1329939838.704786 498 476 583 334 417 307
23.360086 1329939838.713229 495 476 589 332 420 306
23.414929 1329939838.721383 496 476 594 335 420 309
23.414929 1329939838.729943 502 475 598 338 419 312
23.443559 1329939838.738037 501 470 602 342 421 318
23.443559 1329939838.754363 504 469 603 335 421 326
23.484989 1329939838.756805 510 479 605 325 422 327
23.484989 1329939838.763395 511 487 607 327 417 327
23.531282 1329939838.771778 506 479 611 339 415 332
23.531282 1329939838.780122 511 472 611 346 416 337
23.560175 1329939838.788205 514 479 612 344 419 339
23.560175 1329939838.796465 513 487 612 345 416 341
23.602030 1329939838.804951 509 477 612 348 410 347
23.602030 1329939838.813346 516 470 611 344 413 355
23.648065 1329939838.822308 510 484 614 340 418 356
23.648065 1329939838.830108 501 496 619 342 418 353
23.685657 1329939838.838248 501 490 620 349 408 356
23.685657 1329939838.846637 514 477 619 355 398 365
23.733533 1329939838.864418 518 482 620 353 397 369
23.733533 1329939838.873006 511 497 621 354 400 367
23.779847 1329939838.880072 505 500 623 361 398 367
23.779847 1329939838.888360 509 493 623 368 402 369
23.803514 1329939838.896559 514 490 621 369 410 366
23.803514 1329939838.904557 516 495 620 370 407 361
23.844231 1329939838.917089 507 498 621 377 399 359
23.844231 1329939838.921836 499 495 621 386 394 361
23.898256 1329939838.929995 501 494 620 388 393 365
23.898256 1329939838.938317 505 500 620 386 395 369
23.919152 1329939838.946397 502 507 623 384 394 368
23.919152 1329939838.954507 502 503 627 382 392 364
23.961055 1329939838.962996 511 497 626 376 390 360
23.961055 1329939838.971059 516 497 627 372 385 358
24.002569 1329939838.980044 519 500 628 366 379 357
24.002569 1329939838.988190 520 497 627 364 374 358
24.044140 1329939838.996181 519 494 626 374 368 364
24.044140 1329939839.004586 516 497 622 387 363 366
24.085647 1329939839.012949 514 500 616 397 359 370
24.085647 1329939839.021095 512 496 609 395 357 373
24.119127 1329939839.029740 512 492 604 391 362 373
24.119127 1329939839.038056 510 494 599 388 368 374
24.160694 1329939839.046248 508 501 598 386 378 374
24.160694 1329939839.054423 508 499 599 381 382 375
24.205642 1329939839.062962 510 494 601 377 384 376
24.205642 1329939839.071030 514 492 603 377 386 381
24.243540 1329939839.084726 511 494 605 381 387 386
24.243540 1329939839.088070 512 496 607 384 386 388
24.285475 1329939839.096378 518 497 607 379 386 387
24.285475 1329939839.115687 518 501 609 373 386 384
24.318880 1329939839.129370 516 506 611 372 383 380
24.318880 1329939839.131812 513 506 612 375 382 378
24.367529 1329939839.137888 515 502 612 378 383 376
24.367529 1329939839.146165 519 499 611 378 384 376
24.400855 1329939839.154793 519 497 611 380 385 375
24.400855 1329939839.162926 518 497 611 381 383 375
24.443463 1329939839.170983 516 498 610 382 377 375
24.443463 1329939839.179827 517 499 609 380 373 373
24.485613 1329939839.188181 518 499 607 379 369 370
24.485613 1329939839.198718 519 499 607 380 368 369
24.527296 1329939839.204713 518 501 607 380 367 371
24.527296 1329939839.213141 515 501 605 379 367 371
24.560500 1329939839.221211 516 499 602 377 368 372
24.560500 1329939839.233388 516 497 602 372 369 373
24.601952 1329939839.238059 516 499 602 367 373 373
24.601952 1329939839.246487 515 501 602 366 375 373
24.652128 1329939839.254937 514 499 603 368 377 373
24.652128 1329939839.262984 517 498 603 371 379 373
24.685218 1329939839.270976 519 498 605 374 383 373
24.685218 1329939839.281247 518 498 606 375 384 371
24.721414 1329939839.288083 517 498 607 378 381 369
24.721414 1329939839.296437 516 498 607 379 378 370
24.760252 1329939839.304681 516 497 608 380 376 369
24.760252 1329939839.313176 516 494 608 378 377 369
24.801471 1329939839.321008 516 493 608 377 375 370
24.801471 1329939839.329612 515 492 607 376 372 373
24.843118 1329939839.337960 515 492 604 375 371 377
24.843118 1329939839.346326 514 494 602 374 373 376
24.886834 1329939839.354561 514 494 598 372 374 375
24.886834 1329939839.362803 514 494 591 370 371 375
24.919446 1329939839.370778 514 496 583 374 368 379
24.919446 1329939839.379452 512 500 571 374 362 383
24.964516 1329939839.392736 511 512 561 375 363 388
24.964516 1329939839.396207 506 532 548 375 374 389
25.001330 1329939839.404454 506 552 536 373 386 382
25.001330 1329939839.412965 512 565 532 368 406 369
25.043237 1329939839.421066 515 578 537 369 434 353
25.043237 1329939839.429407 524 593 549 372 463 334
25.085180 1329939839.441748 530 592 571 378 494 316
25.085180 1329939839.445999 541 583 591 374 516 296
25.118934 1329939839.454246 558 572 619 368 524 277
25.118934 1329939839.464700 568 562 649 370 529 258
25.175137 1329939839.470717 579 538 678 372 519 245
25.175137 1329939839.479365 592 533 703 377 495 246
25.201970 1329939839.487583 605 528 725 383 470 246
25.201970 1329939839.495940 613 511 740 390 444 246
25.243522 1329939839.504031 620 490 752 395 411 246
25.243522 1329939839.512532 617 479 759 404 368 249
25.286713 1329939839.520467 612 475 759 420 315 258
25.286713 1329939839.528976 604 473 747 426 267 265
25.318678 1329939839.537394 596 476 724 419 224 271
25.318678 1329939839.546017 590 468 697 407 195 273
25.360232 1329939839.554020 591 466 671 393 184 276
25.360232 1329939839.562439 581 467 645 380 193 277
25.400512 1329939839.570406 566 470 623 375 203 278
25.400512 1329939839.579099 558 468 607 373 215 288
25.443366 1329939839.587257 551 464 596 376 225 297
25.443366 1329939839.595760 544 457 585 380 238 308
25.484494 1329939839.603917 543 454 576 385 251 322
25.484494 1329939839.612434 537 453 574 385 259 332
25.526584 1329939839.620672 532 450 571 382 257 342
25.526584 1329939839.628849 524 447 567 375 255 353
25.558981 1329939839.641382 528 444 561 372 256 369
25.558981 1329939839.645557 528 442 548 377 256 383
25.600058 1329939839.653954 530 442 536 377 259 396
25.600058 1329939839.662351 527 447 526 370 270 411
25.641243 1329939839.670552 526 450 517 368 286 419
25.641243 1329939839.678943 523 453 511 367 300 428
25.683611 1329939839.687541 522 456 504 360 312 438
25.683611 1329939839.695397 521 460 500 351 324 448
25.723911 1329939839.703987 521 466 499 338 339 455
25.723911 1329939839.714123 519 474 498 331 352 460
25.765560 1329939839.720193 519 483 497 328 362 466
25.765560 1329939839.728877 520 490 499 327 371 474
25.799064 1329939839.737358 518 497 502 336 385 482
25.799064 1329939839.757054 520 502 510 353 406 491
25.840592 1329939839.770237 523 505 523 366 431 497
25.840592 1329939839.778818 526 509 534 372 443 503
25.883057 1329939839.786652 532 516 543 375 448 511
25.883057 1329939839.795117 533 529 554 383 456 524
25.927402 1329939839.803495 536 535 571 390 474 531
25.927402 1329939839.812130 540 532 589 388 484 532
25.966154 1329939839.820052 544 533 606 386 479 535
25.966154 1329939839.828637 550 549 626 393 474 540
25.999835 1329939839.836538 559 556 645 397 476 548
25.999835 1329939839.845003 563 560 660 388 469 552
26.041529 1329939839.853481 562 573 678 382 451 545
26.041529 1329939839.862980 564 591 696 382 434 536
26.082446 1329939839.870129 568 595 709 383 420 526
26.082446 1329939839.878527 564 595 714 382 400 524
26.124160 1329939839.886618 559 609 716 384 369 512
26.124160 1329939839.895013 556 626 717 391 344 495
26.166392 1329939839.908930 552 625 716 403 323 479
26.166392 1329939839.912095 548 614 709 417 300 469
26.199725 1329939839.919901 541 612 697 425 274 453
26.199725 1329939839.928572 536 612 683 431 253 434
26.241354 1329939839.936366 530 602 667 438 242 418
26.241354 1329939839.944835 527 594 654 445 244 409
26.288111 1329939839.953249 520 589 644 449 248 399
26.288111 1329939839.961987 517 584 633 446 252 389
26.324554 1329939839.969953 513 576 624 434 266 379
26.324554 1329939839.978544 510 570 617 425 273 372
26.365962 1329939839.986714 504 563 611 423 275 364
26.365962 1329939839.995223 501 560 602 419 272 357
26.399291 1329939840.003355 500 556 593 413 269 347
26.399291 1329939840.012043 498 556 584 409 264 339
26.440692 1329939840.019949 496 553 574 410 258 334
26.440692 1329939840.028575 494 548 563 408 258 327
26.481764 1329939840.036394 492 545 553 407 265 322
26.481764 1329939840.044847 490 543 545 409 275 320
26.522793 1329939840.053336 492 539 539 404 287 317
26.522793 1329939840.061896 490 535 536 395 303 316
26.564556 1329939840.069966 491 528 534 390 314 318
26.564556 1329939840.078446 491 519 531 387 322 312
26.604033 1329939840.086391 493 518 528 385 336 311
26.604033 1329939840.094930 495 517 527 382 347 308
26.641370 1329939840.105072 495 510 528 379 360 304
26.641370 1329939840.117018 495 505 528 371 371 300
26.681006 1329939840.121762 494 504 531 356 384 299
26.681006 1329939840.128301 496 498 534 345 396 298
26.720740 1329939840.136226 497 490 539 344 404 296
26.720740 1329939840.144921 501 489 543 346 413 290
26.759626 1329939840.153170 502 486 547 339 415 287
26.759626 1329939840.164164 501 479 553 327 422 291
26.806996 1329939840.169927 503 472 558 316 431 293
26.806996 1329939840.178228 508 475 564 307 437 294
26.839994 1329939840.186244 503 478 569 306 441 294
26.839994 1329939840.194730 505 469 573 302 446 300
26.893289 1329939840.203109 509 463 581 294 457 307
26.893289 1329939840.211473 506 469 591 296 464 312
26.923851 1329939840.219701 494 472 601 311 460 320
26.923851 1329939840.228220 503 470 606 320 460 336
26.965413 1329939840.236387 512 477 611 321 462 348
26.965413 1329939840.247401 510 490 618 327 468 348
27.006952 1329939840.253108 500 491 628 336 475 347
27.006952 1329939840.261430 506 486 634 345 478 349
27.051788 1329939840.274142 514 487 638 346 472 353
27.051788 1329939840.279299 516 497 641 341 458 353
27.082377 1329939840.286033 508 498 645 340 451 353
27.082377 1329939840.295242 513 497 646 351 451 353
27.123788 1329939840.302978 520 497 648 361 450 357
27.123788 1329939840.311592 521 503 650 365 443 358
27.165591 1329939840.325129 514 504 650 373 428 357
27.165591 1329939840.328053 512 497 648 378 413 360
27.201167 1329939840.335968 516 494 643 377 403 365
27.201167 1329939840.344755 522 497 639 371 396 370
27.249194 1329939840.353105 523 504 636 369 387 368
27.249194 1329939840.361435 520 505 633 372 374 367
27.282482 1329939840.371609 520 501 629 379 366 369
27.282482 1329939840.378048 521 500 623 382 364 372
27.324031 1329939840.388033 523 504 617 380 365 374
27.324031 1329939840.394491 520 505 612 381 364 373
27.369381 1329939840.402886 519 501 610 382 367 373
27.369381 1329939840.413455 520 494 607 383 369 377
27.399643 1329939840.419671 523 490 604 379 371 381
27.399643 1329939840.428115 523 496 603 375 375 384
27.442478 1329939840.436027 521 501 605 376 381 385
27.442478 1329939840.444393 519 502 606 376 381 385
27.482295 1329939840.452888 520 505 606 364 375 381
27.524298 1329939840.461369 518 506 606 366 369 377
27.524298 1329939840.474489 515 505 608 372 369 374
27.569361 1329939840.478011 513 505 608 380 367 372
27.569361 1329939840.485950 512 505 609 386 365 372
27.607124 1329939840.494576 514 504 611 392 366 370
27.607124 1329939840.502807 515 503 610 391 370 369
27.640614 1329939840.511453 515 503 609 384 378 365
27.640614 1329939840.522939 516 501 610 378 382 361
27.682496 1329939840.527993 516 500 611 377 385 363
27.682496 1329939840.535684 517 500 612 376 382 366
27.723619 1329939840.544553 517 501 611 375 378 369
27.723619 1329939840.552859 517 505 609 370 374 369
27.765372 1329939840.561146 519 505 609 368 373 369
27.765372 1329939840.569404 519 503 608 370 373 371
27.807114 1329939840.577921 518 504 607 370 374 374
27.807114 1329939840.585839 517 507 608 373 374 374
27.840511 1329939840.594414 516 507 607 378 372 373
27.840511 1329939840.602804 518 504 606 379 372 371
27.882373 1329939840.611173 518 502 604 374 371 369
27.882373 1329939840.619538 516 502 603 370 373 368
27.923561 1329939840.637988 516 503 604 371 377 370
27.923561 1329939840.639675 519 502 605 374 380 372
27.965069 1329939840.643993 520 500 605 375 379 374
27.965069 1329939840.653061 521 501 605 373 379 374
28.006969 1329939840.661556 521 502 604 369 381 373
28.006969 1329939840.669424 520 503 604 368 379 372
28.043441 1329939840.678109 519 504 605 370 378 373
28.043441 1329939840.686038 519 506 605 368 378 372
28.084034 1329939840.694554 519 509 607 369 377 370
28.084034 1329939840.703256 518 510 607 371 375 367
28.122776 1329939840.711803 518 507 608 369 373 364
28.122776 1329939840.719699 518 506 607 367 372 365
28.162943 1329939840.728625 517 506 606 371 372 367
28.162943 1329939840.736213 517 504 605 375 372 370
28.209785 1329939840.744520 519 500 605 376 371 372
28.209785 1329939840.753307 521 500 605 375 371 374
28.248042 1329939840.761592 520 505 604 377 372 373
28.248042 1329939840.777761 519 509 603 380 372 370
28.281346 1329939840.780710 519 508 603 382 375 367
28.281346 1329939840.786113 518 504 604 380 376 366
28.325706 1329939840.794376 516 505 604 378 376 365
28.325706 1329939840.803218 513 510 604 379 374 367
28.360931 1329939840.811538 513 509 604 385 372 368
28.360931 1329939840.819773 514 505 604 387 370 370
28.406483 1329939840.828300 516 503 605 381 372 372
28.406483 1329939840.836512 518 507 605 376 372 372
28.445959 1329939840.844877 517 506 605 375 373 370
28.445959 1329939840.853268 518 502 605 373 374 372
28.481148 1329939840.862180 519 500 606 367 375 371
28.481148 1329939840.870141 520 501 607 364 375 371
28.522876 1329939840.884470 519 504 608 365 374 372
28.522876 1329939840.889178 518 505 607 367 372 373
28.564604 1329939840.894898 517 504 607 368 369 374
28.564604 1329939840.903412 517 505 607 367 367 373
28.606365 1329939840.912159 515 508 606 366 366 371
28.606365 1329939840.919953 515 507 606 365 365 370
28.639385 1329939840.928942 516 503 605 367 367 371
28.639385 1329939840.936811 516 503 603 368 371 374
28.681116 1329939840.945348 514 507 604 372 374 377
28.681116 1329939840.953765 513 507 604 374 376 375
28.723212 1329939840.962650 513 506 604 371 374 373
28.723212 1329939840.970337 515 505 604 368 374 372
28.764253 1329939840.978707 514 506 604 371 373 373
28.764253 1329939840.986940 514 507 604 373 375 372
28.805726 1329939840.995637 515 507 604 374 376 371
28.805726 1329939841.003897 516 506 606 374 377 370
28.842667 1329939841.012343 515 506 607 373 375 371
28.842667 1329939841.020715 515 508 607 375 373 370
28.880559 1329939841.028974 515 507 607 378 373 370
28.880559 1329939841.040048 515 506 608 377 372 370
28.922226 1329939841.045472 515 507 607 376 370 371
28.922226 1329939841.053632 514 507 606 377 368 369
28.963698 1329939841.062526 514 505 604 378 366 368
28.963698 1329939841.070482 515 504 604 377 370 369
28.998969 1329939841.078730 515 505 604 379 372 370
28.998969 1329939841.094478 513 506 603 379 372 370
29.038973 1329939841.109592 512 504 603 379 372 372
29.038973 1329939841.112990 513 502 602 377 373 373
29.080358 1329939841.120501 513 504 602 375 375 373
29.080358 1329939841.128597 511 506 602 378 377 373
29.121869 1329939841.137148 510 505 602 378 378 372
29.121869 1329939841.158615 510 504 603 377 379 374
29.163302 1329939841.162148 511 505 604 377 380 375
29.163302 1329939841.170399 512 505 604 379 381 375
29.210475 1329939841.178727 513 505 604 380 381 374
29.210475 1329939841.187239 515 505 605 379 381 372
29.246977 1329939841.195454 514 506 606 381 382 371
29.246977 1329939841.203347 512 506 607 381 380 371
29.280094 1329939841.214056 513 504 607 383 374 370
29.280094 1329939841.220684 515 503 605 383 372 369
29.321680 1329939841.228839 515 504 603 382 373 369
29.321680 1329939841.237179 514 503 602 383 375 371
29.363530 1329939841.245385 513 502 599 381 376 372
29.363530 1329939841.253214 512 503 596 380 375 373
29.404971 1329939841.262206 513 503 592 379 377 374
29.404971 1329939841.270590 512 505 588 380 378 374
29.446581 1329939841.278881 511 506 583 379 380 375
29.446581 1329939841.287350 508 509 579 381 383 377
29.480449 1329939841.295765 508 512 578 383 386 379
29.480449 1329939841.303443 509 514 577 380 391 373
29.521694 1329939841.311999 509 516 577 375 392 368
29.521694 1329939841.320559 510 521 578 375 391 365
29.563526 1329939841.328985 511 525 582 380 392 359
29.563526 1329939841.336901 514 525 585 381 396 355
29.605183 1329939841.345657 518 525 587 375 403 351
29.605183 1329939841.353558 521 525 591 371 413 351
29.638675 1329939841.382536 523 527 596 375 423 348
29.638675 1329939841.397741 524 526 601 379 428 345
29.680727 1329939841.403978 527 526 603 376 428 339
29.680727 1329939841.412151 530 527 603 368 427 334
29.722133 1329939841.420599 532 527 606 368 425 330
29.722133 1329939841.428342 532 527 609 378 419 326
29.758655 1329939841.436766 533 526 609 388 409 324
29.758655 1329939841.445690 536 524 609 392 401 323
29.805386 1329939841.453635 540 520 609 385 396 317
29.805386 1329939841.461911 543 515 610 376 393 313
29.838917 1329939841.470227 543 517 611 372 397 314
29.838917 1329939841.478332 543 519 616 375 406 310
29.880481 1329939841.486578 542 515 623 377 419 308
29.880481 1329939841.495160 543 520 630 374 425 306
29.921855 1329939841.503672 544 521 636 372 421 306
29.921855 1329939841.511834 547 516 642 376 417 305
29.963795 1329939841.520132 551 516 646 382 409 306
29.963795 1329939841.528229 554 519 650 384 399 305
30.008069 1329939841.536254 556 517 655 388 397 303
30.008069 1329939841.545114 559 516 659 395 399 301
30.039090 1329939841.553404 561 510 662 393 397 300
30.039090 1329939841.561640 562 504 664 392 388 297
30.087057 1329939841.569995 561 502 667 395 374 297
30.087057 1329939841.578078 561 501 666 398 357 298
30.122178 1329939841.586149 562 505 664 396 346 296
30.122178 1329939841.594959 563 504 661 392 341 293
30.163702 1329939841.603285 560 496 656 393 335 293
30.163702 1329939841.611188 558 491 652 398 327 297
30.205415 1329939841.619716 559 490 645 399 324 302
30.205415 1329939841.633329 559 488 639 396 317 305
30.238932 1329939841.635840 558 485 639 390 314 308
30.238932 1329939841.644317 556 481 636 387 306 311
30.280238 1329939841.655872 553 478 628 387 293 315
30.280238 1329939841.660384 551 478 619 386 287 320
30.321940 1329939841.669119 547 478 610 385 290 322
30.321940 1329939841.677334 543 477 606 383 295 325
30.363142 1329939841.685361 538 476 605 387 301 330
30.363142 1329939841.694046 533 475 602 399 301 338
30.405190 1329939841.702303 531 473 598 410 298 345
30.405190 1329939841.710000 530 470 592 415 300 352
30.447062 1329939841.718256 524 474 588 416 304 358
30.447062 1329939841.726699 519 473 585 410 309 363
30.486416 1329939841.734543 517 470 581 408 311 370
30.486416 1329939841.742704 518 471 579 406 315 372
30.521277 1329939841.751303 512 471 579 398 325 376
30.521277 1329939841.759130 508 471 576 390 330 381
30.562577 1329939841.767522 507 471 573 387 333 384
30.562577 1329939841.775967 506 471 572 387 337 388
30.604263 1329939841.784235 505 470 573 383 343 392
30.604263 1329939841.792211 502 470 572 383 344 397
30.644417 1329939841.800578 502 468 571 381 341 401
30.644417 1329939841.808781 501 469 567 380 336 407
30.678744 1329939841.817249 499 474 563 378 334 411
30.678744 1329939841.834166 498 476 562 375 335 414
30.719877 1329939841.842044 499 475 559 373 338 418
30.719877 1329939841.850523 497 476 556 369 341 422
30.768659 1329939841.858748 495 481 555 364 342 425
30.768659 1329939841.866702 493 485 553 361 349 424
30.807185 1329939841.875389 494 483 552 359 356 425
30.807185 1329939841.883399 497 480 551 358 362 425
30.844258 1329939841.891523 496 480 549 356 366 427
30.844258 1329939841.899970 494 487 548 355 369 431
30.886808 1329939841.908152 496 490 549 360 375 434
30.886808 1329939841.916238 500 489 547 365 377 437
30.918658 1329939841.925002 500 491 545 368 379 439
30.918658 1329939841.934175 502 499 543 366 383 436
30.965798 1329939841.941494 501 504 543 360 389 429
30.965798 1329939841.958568 500 507 545 357 398 428
31.002260 1329939841.966387 503 510 547 361 413 430
31.002260 1329939841.974709 511 511 550 370 423 435
31.044729 1329939841.989629 512 514 555 375 430 438
31.044729 1329939841.991220 507 520 561 364 435 437
31.086268 1329939842.004440 510 523 566 354 438 435
31.086268 1329939842.008174 513 524 572 358 443 441
31.130603 1329939842.016328 517 521 578 373 446 449
31.130603 1329939842.024576 521 526 582 372 448 450
31.164279 1329939842.042109 521 541 587 365 449 448
31.164279 1329939842.049739 525 540 595 359 458 448
31.202261 1329939842.067875 531 522 606 351 472 450
31.202261 1329939842.074934 531 525 617 335 479 443
31.244769 1329939842.083311 525 543 627 326 469 440
31.244769 1329939842.091438 531 542 635 336 457 445
31.286066 1329939842.099957 542 524 639 343 454 453
31.286066 1329939842.108286 548 527 644 331 448 457
31.319346 1329939842.116312 546 542 650 328 439 456
31.319346 1329939842.125094 550 540 656 339 432 457
31.362588 1329939842.133939 558 536 659 349 429 461
31.362588 1329939842.141941 561 540 663 356 425 460
31.402125 1329939842.150131 558 544 666 361 412 455
31.402125 1329939842.158852 561 545 669 368 399 453
31.444605 1329939842.167109 563 543 670 371 390 450
31.444605 1329939842.175608 564 540 669 369 377 451
31.486057 1329939842.183899 563 540 668 369 362 451
31.486057 1329939842.192216 563 541 665 369 347 449
31.519531 1329939842.200197 564 543 662 367 338 447
31.519531 1329939842.208723 557 546 657 367 327 446
31.571296 1329939842.217523 552 548 651 370 314 443
31.571296 1329939842.225745 551 544 647 373 305 438
31.599485 1329939842.234381 550 545 643 379 307 435
31.599485 1329939842.242710 547 547 640 386 307 434
31.644826 1329939842.251001 540 551 638 390 308 435
31.644826 1329939842.259386 537 554 636 386 308 436
31.692167 1329939842.267791 536 554 633 385 312 431
31.692167 1329939842.277631 537 557 633 385 316 423
31.718874 1329939842.284517 535 558 633 389 312 417
31.718874 1329939842.294798 532 554 631 396 301 413
31.762478 1329939842.300909 531 551 626 398 288 411
31.762478 1329939842.312515 529 547 620 404 281 409
31.804933 1329939842.317349 525 544 615 409 279 409
31.804933 1329939842.325755 519 545 610 411 279 409
31.843319 1329939842.334464 518 550 604 408 276 405
31.843319 1329939842.342595 514 555 601 405 274 398
31.884920 1329939842.350760 512 552 596 401 271 390
31.884920 1329939842.366630 506 551 591 396 272 382
31.949134 1329939842.388650 502 554 587 393 274 374
31.949134 1329939842.402142 501 555 581 394 279 369
31.959921 1329939842.413589 497 550 576 396 281 361
31.959921 1329939842.419491 494 544 572 392 288 352
32.001329 1329939842.425933 494 543 567 388 297 346
32.001329 1329939842.435328 492 542 565 386 309 341
32.042511 1329939842.442458 490 539 564 386 315 336
32.042511 1329939842.451160 489 538 562 384 320 329
32.084319 1329939842.459454 489 537 560 383 323 324
32.084319 1329939842.467810 489 532 557 379 328 319
32.125786 1329939842.476038 487 526 554 377 331 316
32.125786 1329939842.484071 486 520 552 373 337 313
32.159194 1329939842.492502 485 518 552 367 344 308
32.159194 1329939842.501061 486 516 551 362 349 303
32.200507 1329939842.509074 488 510 550 356 357 299
32.200507 1329939842.517549 487 504 549 349 362 298
32.242070 1329939842.536799 485 501 549 345 368 298
32.242070 1329939842.538757 488 501 549 340 377 298
32.283870 1329939842.542301 492 501 549 331 387 296
32.283870 1329939842.554261 488 496 552 326 399 297
32.329360 1329939842.559126 486 490 554 325 413 299
32.329360 1329939842.567414 488 490 555 319 422 301
32.359050 1329939842.576109 493 492 557 312 432 305
32.359050 1329939842.583877 492 492 561 318 438 311
32.403168 1329939842.592697 491 484 566 326 447 317
32.403168 1329939842.609792 497 484 571 325 458 320
32.442513 1329939842.617516 505 489 575 317 461 325
32.442513 1329939842.625859 505 493 581 324 458 331
32.484576 1329939842.634188 505 486 586 344 457 339
32.484576 1329939842.642172 508 482 590 351 462 339
32.526490 1329939842.650826 514 492 594 348 462 336
32.526490 1329939842.659162 515 502 598 349 450 330
32.568727 1329939842.667334 512 492 602 359 439 333
32.568727 1329939842.675886 522 480 601 371 438 337
32.601544 1329939842.685387 528 483 602 374 441 339
32.601544 1329939842.692452 527 497 606 370 444 341
32.643318 1329939842.700813 518 493 611 370 443 349
32.643318 1329939842.708869 520 482 617 375 447 355
32.685232 1329939842.717455 530 479 618 379 456 355
32.685232 1329939842.725970 534 485 620 371 460 349
32.727043 1329939842.734148 531 492 624 360 454 347
32.727043 1329939842.742161 525 491 630 359 449 353
32.760940 1329939842.751070 529 489 633 370 450 357
32.760940 1329939842.760811 536 489 635 381 449 361
32.802099 1329939842.767444 538 488 636 379 441 365
32.802099 1329939842.775696 529 488 636 375 429 372
32.844225 1329939842.783895 523 489 637 379 421 372
32.844225 1329939842.793987 529 490 636 384 418 368
32.886025 1329939842.805759 535 492 635 387 413 369
32.886025 1329939842.810389 533 494 634 387 407 374
32.921810 1329939842.817201 530 496 635 387 402 383
32.921810 1329939842.833747 528 500 637 387 396 387
32.961023 1329939842.835755 530 499 635 385 388 384
32.961023 1329939842.842244 534 496 633 383 383 378
33.002758 1329939842.863951 531 495 632 378 378 375
33.002758 1329939842.866887 530 495 632 374 371 375
33.044018 1329939842.875620 531 497 629 370 361 377
33.044018 1329939842.884007 530 499 626 369 358 378
33.085903 1329939842.892036 528 500 621 371 357 381
33.085903 1329939842.900182 527 502 618 373 363 383
33.119165 1329939842.909046 526 501 616 373 369 381
33.119165 1329939842.916904 528 500 615 373 372 378
33.160467 1329939842.925350 527 499 614 369 370 378
33.160467 1329939842.933451 526 502 612 368 368 379
33.200433 1329939842.941994 524 504 610 370 367 380
33.200433 1329939842.950080 525 505 609 370 367 379
33.243599 1329939842.958487 525 501 605 373 357 380
33.286006 1329939842.966847 527 505 602 375 364 378
33.326915 1329939842.975174 526 505 603 378 371 375
33.360749 1329939842.983437 525 502 602 378 369 375
33.402094 1329939842.993837 527 503 602 372 379 375
33.440555 1329939842.999912 525 503 604 369 379 379
33.485468 1329939843.008272 526 504 604 371 375 377
33.526897 1329939843.016680 526 502 603 372 374 374
33.560477 1329939843.024764 524 505 604 380 381 373
33.601450 1329939843.033101 526 503 606 383 388 371
33.643078 1329939843.043687 525 501 605 371 375 370
33.684752 1329939843.049913 528 504 603 366 373 373
33.726307 1329939843.059652 528 506 605 361 376 370
33.759888 1329939843.070868 528 503 605 367 374 372
33.759888 1329939843.074549 531 502 605 375 377 374
33.800974 1329939843.083006 532 507 607 383 385 375
33.800974 1329939843.091488 530 507 608 386 384 372
33.846098 1329939843.099818 528 500 608 388 381 369
33.846098 1329939843.108212 529 496 607 386 375 372
33.884086 1329939843.116394 531 498 606 381 372 372
33.884086 1329939843.124370 529 502 606 375 372 373
33.919877 1329939843.132811 527 499 605 369 365 372
33.919877 1329939843.141123 527 496 602 364 362 375
33.964863 1329939843.149549 527 496 598 361 361 378
33.964863 1329939843.157988 527 501 597 360 364 380
34.000720 1329939843.166345 525 506 595 361 369 379
34.000720 1329939843.174245 525 506 594 362 372 377
34.042208 1329939843.184745 525 508 591 363 373 379
34.042208 1329939843.191170 527 510 590 365 375 380
34.084419 1329939843.199487 525 511 588 372 377 380
34.084419 1329939843.207747 526 515 584 381 380 380
34.127380 1329939843.216324 526 520 581 386 384 377
34.127380 1329939843.224060 527 521 580 386 392 373
34.158981 1329939843.232449 525 525 580 387 396 370
34.158981 1329939843.240944 524 527 580 390 397 374
34.200596 1329939843.249203 528 530 578 395 395 370
34.200596 1329939843.257531 531 533 580 403 403 364
34.242125 1329939843.265916 529 537 583 410 414 355
34.242125 1329939843.273842 530 543 587 407 418 347
34.283917 1329939843.282381 533 544 594 403 415 344
34.283917 1329939843.290757 536 548 604 406 425 337
34.325898 1329939843.299041 540 556 614 402 435 323
34.325898 1329939843.307370 549 553 624 385 433 305
34.359637 1329939843.315872 555 541 639 375 430 292
34.359637 1329939843.323876 557 538 653 388 426 286
34.404145 1329939843.332362 562 546 660 406 418 279
34.404145 1329939843.340795 566 542 665 408 412 272
34.442692 1329939843.349197 568 532 673 405 410 264
34.442692 1329939843.357393 576 519 680 400 400 258
34.484253 1329939843.366140 581 513 682 396 381 260
34.484253 1329939843.374056 582 505 680 389 361 261
34.517672 1329939843.382289 581 495 674 382 352 259
34.517672 1329939843.390924 582 487 670 375 347 257
34.567208 1329939843.399243 585 476 668 371 336 264
34.567208 1329939843.410248 585 472 663 378 324 276
34.601511 1329939843.415773 580 472 657 392 315 285
34.601511 1329939843.423999 576 472 648 402 305 293
34.642989 1329939843.432451 571 473 639 403 297 298
34.642989 1329939843.440843 567 473 632 399 291 299
34.678843 1329939843.450114 564 467 630 393 283 300
34.678843 1329939843.460700 559 462 622 392 267 308
34.728287 1329939843.465695 553 464 612 392 255 319
34.728287 1329939843.473954 550 468 600 392 256 326
34.759385 1329939843.487975 545 466 590 393 267 330
34.759385 1329939843.490519 537 466 586 382 278 334
34.798880 1329939843.499134 533 463 583 372 285 338
34.798880 1329939843.507286 527 459 581 370 287 345
34.850267 1329939843.515652 521 460 579 371 291 355
34.850267 1329939843.524211 518 464 576 375 293 366
34.883658 1329939843.532806 514 464 570 377 292 375
34.883658 1329939843.540682 509 464 565 375 294 382
34.925199 1329939843.549352 509 465 563 373 306 389
34.925199 1329939843.557780 507 465 560 372 314 392
34.966448 1329939843.574368 505 463 557 366 314 398
34.966448 1329939843.582572 501 466 555 361 311 406
34.999310 1329939843.591515 499 473 552 359 315 411
34.999310 1329939843.599844 498 474 550 363 323 415
35.040490 1329939843.608322 498 474 548 366 328 422
35.040490 1329939843.616393 499 481 547 362 331 428
35.083067 1329939843.633052 500 486 544 358 332 433
35.083067 1329939843.635173 500 488 542 358 341 437
35.123068 1329939843.641546 501 491 541 356 354 440
35.123068 1329939843.649747 502 497 538 352 362 440
35.164959 1329939843.658549 501 501 536 345 368 442
35.164959 1329939843.666730 500 501 536 343 376 444
35.207126 1329939843.674632 504 504 537 344 388 448
35.207126 1329939843.684826 502 509 539 346 395 449
35.244694 1329939843.696427 500 510 540 350 396 451
35.244694 1329939843.699828 501 511 543 356 399 450
35.281721 1329939843.708041 504 515 547 361 411 453
35.281721 1329939843.716589 508 518 551 369 418 457
35.325236 1329939843.724845 513 519 556 376 420 460
35.325236 1329939843.733096 514 521 562 381 429 459
35.363714 1329939843.741272 523 523 568 384 443 458
35.363714 1329939843.749939 525 522 575 387 448 459
35.398984 1329939843.758234 525 520 585 390 449 462
35.398984 1329939843.766751 528 518 597 395 457 466
35.440582 1329939843.774852 536 517 608 398 463 469
35.440582 1329939843.789826 533 521 619 395 456 472
35.510121 1329939843.803398 532 530 630 386 449 475
35.510121 1329939843.808440 542 538 640 387 454 473
35.521443 1329939843.816591 548 537 650 392 460 473
35.521443 1329939843.825424 549 531 661 392 458 481
35.564857 1329939843.833465 549 529 668 380 445 488
35.564857 1329939843.850186 555 543 674 366 434 484
35.598735 1329939843.852836 557 558 680 374 429 474
35.598735 1329939843.858471 559 559 684 391 420 472
35.640419 1329939843.866902 562 553 685 403 407 470
35.640419 1329939843.875196 562 553 684 406 391 464
35.679757 1329939843.883443 559 560 682 411 376 454
35.679757 1329939843.891876 555 557 679 417 361 447
35.723416 1329939843.900203 555 552 673 424 350 439
35.723416 1329939843.908342 554 551 667 422 343 437
35.765023 1329939843.916834 551 555 662 420 335 427
35.765023 1329939843.925222 550 553 658 411 329 418
35.801075 1329939843.935676 546 544 656 402 324 412
35.801075 1329939843.950709 541 541 651 394 314 410
35.839952 1329939843.972467 537 541 645 389 301 408
35.839952 1329939843.975264 537 543 639 383 296 405
35.881351 1329939843.984153 537 539 633 382 296 401
35.881351 1329939843.992278 534 538 629 381 295 396
35.923291 1329939844.000474 531 537 625 375 291 391
35.923291 1329939844.008849 526 538 622 372 291 384
35.959669 1329939844.024780 524 535 617 369 289 380
35.959669 1329939844.039372 521 533 613 368 283 376
36.005845 1329939844.062223 521 539 609 369 277 374
36.005845 1329939844.067099 521 541 604 372 270 369
36.038459 1329939844.075140 519 542 596 377 263 365
36.038459 1329939844.083653 516 542 587 377 259 356
36.080810 1329939844.092240 511 543 578 371 256 350
36.080810 1329939844.102068 507 546 572 367 260 345
36.122310 1329939844.108797 502 544 565 365 267 332
36.122310 1329939844.117003 501 541 558 358 274 321
36.163661 1329939844.125315 499 537 552 351 283 314
36.163661 1329939844.133581 496 532 547 344 295 310
36.206531 1329939844.142034 495 527 543 342 308 310
36.206531 1329939844.153690 495 525 540 344 323 305
36.238541 1329939844.158494 493 520 538 348 335 303
36.238541 1329939844.166947 490 511 537 351 346 303
36.279878 1329939844.175111 489 508 536 349 358 303
36.279878 1329939844.183555 488 507 537 352 369 300
36.323145 1329939844.192081 485 506 538 353 376 296
36.323145 1329939844.200102 487 501 540 349 383 298
36.363437 1329939844.208625 488 496 542 342 391 297
36.363437 1329939844.216772 487 491 545 334 400 296
36.400522 1329939844.225053 486 491 548 326 409 295
36.400522 1329939844.233369 488 494 552 324 416 300
36.441629 1329939844.243153 490 493 557 329 425 304
36.441629 1329939844.249979 491 483 565 329 439 304
36.481145 1329939844.258556 494 480 572 322 446 303
36.481145 1329939844.266863 492 484 581 318 440 312
36.522708 1329939844.274836 493 488 591 338 439 326
36.522708 1329939844.283278 496 480 598 366 453 332
36.564418 1329939844.303715 502 480 600 371 459 331
36.564418 1329939844.308816 501 486 605 362 449 333
36.599394 1329939844.317301 495 489 611 364 446 339
36.599394 1329939844.325518 501 483 613 375 452 344
36.639451 1329939844.333402 510 482 616 382 461 345
36.639451 1329939844.342196 512 491 620 379 460 344
36.681554 1329939844.350377 507 490 623 374 448 351
36.681554 1329939844.358726 508 483 626 369 441 358
36.723180 1329939844.367399 512 484 628 362 442 357
36.723180 1329939844.375562 515 492 631 357 437 349
36.764608 1329939844.383132 511 492 633 352 427 346
36.764608 1329939844.391905 514 487 632 347 414 354
36.806254 1329939844.415329 517 491 631 344 408 362
36.806254 1329939844.427094 516 500 629 351 405 364
36.839891 1329939844.433363 511 503 627 366 407 363
36.839891 1329939844.441546 510 501 627 379 413 365
36.881400 1329939844.449756 512 500 627 384 416 367
36.881400 1329939844.458574 515 505 627 384 416 366
36.923269 1329939844.466634 513 508 627 384 412 362
36.923269 1329939844.474981 511 504 628 388 406 362
36.964542 1329939844.483286 512 499 628 386 399 363
36.964542 1329939844.491654 515 499 628 387 391 365
37.006977 1329939844.499721 517 499 625 391 383 372
37.006977 1329939844.508509 516 498 621 394 376 381
37.040184 1329939844.520627 518 500 617 388 373 385
37.040184 1329939844.524775 518 506 615 378 371 383
37.092467 1329939844.533243 517 507 615 377 369 373
37.092467 1329939844.541628 518 503 615 380 368 368
37.130704 1329939844.550036 520 498 615 383 371 364
37.130704 1329939844.558414 524 496 614 383 376 362
37.164695 1329939844.566633 523 497 614 380 378 362
37.164695 1329939844.574662 522 498 614 378 376 365
37.206336 1329939844.583214 521 497 611 377 376 366
37.206336 1329939844.591499 521 500 608 371 376 365
37.239764 1329939844.599731 520 502 607 369 378 364
37.239764 1329939844.608129 520 502 607 371 378 366
37.280893 1329939844.616572 520 500 606 371 379 371
37.280893 1329939844.624633 519 501 604 373 378 375
37.320297 1329939844.632923 521 504 604 376 378 373
37.320297 1329939844.641447 521 505 606 378 380 371
37.364657 1329939844.649657 519 505 607 375 376 373
37.364657 1329939844.658247 518 504 607 372 371 376
37.399222 1329939844.673339 517 506 606 372 369 376
37.399222 1329939844.676096 516 507 605 372 371 374
37.448251 1329939844.682924 515 508 604 372 373 371
37.448251 1329939844.691013 516 505 604 371 374 371
37.482450 1329939844.699995 517 503 605 370 380 373
37.482450 1329939844.707973 517 506 606 374 384 376
37.521222 1329939844.726513 515 508 608 379 382 377
37.521222 1329939844.740711 516 505 609 380 377 377
37.564151 1329939844.743596 519 501 607 380 370 375
37.564151 1329939844.749760 520 501 606 376 369 374
37.605498 1329939844.757919 519 504 605 373 371 373
37.605498 1329939844.766446 517 506 606 375 373 374
37.639085 1329939844.774459 517 506 606 374 374 374
37.639085 1329939844.782771 516 505 605 372 371 375
37.680858 1329939844.790961 516 504 604 372 371 373
37.680858 1329939844.799451 517 503 605 370 373 373
37.720763 1329939844.808100 518 504 605 370 378 374
37.720763 1329939844.816265 518 504 606 370 379 374
37.763971 1329939844.824354 516 503 605 373 376 373
37.763971 1329939844.833039 515 502 605 375 375 375
37.805719 1329939844.841085 516 502 605 377 376 374
37.805719 1329939844.849376 518 501 605 376 378 374
37.838886 1329939844.857824 519 503 606 373 378 373
37.838886 1329939844.866320 517 505 607 373 376 371
37.880794 1329939844.874236 516 504 608 376 375 370
37.880794 1329939844.882706 516 502 607 375 375 370
37.935010 1329939844.893161 518 501 607 372 374 370
37.935010 1329939844.899369 519 503 607 370 373 372
37.963486 1329939844.907943 519 504 608 370 370 372
37.963486 1329939844.916373 517 504 607 370 368 371
38.005176 1329939844.924191 516 504 604 370 368 371
38.005176 1329939844.943807 518 505 603 371 370 371
38.039132 1329939844.958086 516 506 603 371 373 369
38.039132 1329939844.966048 515 505 603 371 375 367
38.079752 1329939844.974485 515 504 603 372 375 368
38.079752 1329939844.983096 516 504 603 370 376 368
38.121837 1329939844.990806 516 507 604 371 377 369
38.121837 1329939844.999157 516 508 604 373 378 369
38.163588 1329939845.007453 516 508 604 373 379 370
38.163588 1329939845.016153 517 507 605 373 378 370
38.205568 1329939845.024276 517 507 605 373 379 368
38.205568 1329939845.032777 516 506 606 374 378 366
38.238717 1329939845.040778 517 506 606 371 376 366
38.238717 1329939845.049055 518 504 606 368 377 367
38.279905 1329939845.057430 519 503 606 365 380 368
38.279905 1329939845.070370 520 503 607 367 382 371
38.321861 1329939845.074228 519 504 607 369 380 371
38.321861 1329939845.082802 519 504 608 370 377 371
38.366981 1329939845.090808 518 505 607 373 374 370
38.366981 1329939845.099133 519 503 606 378 372 370
38.404996 1329939845.118926 519 504 605 381 374 371
38.404996 1329939845.131356 518 506 605 382 375 368
38.438775 1329939845.136419 517 506 604 381 374 366
38.438775 1329939845.149181 515 505 603 379 374 366
38.487813 1329939845.163729 516 503 603 375 375 369
38.487813 1329939845.186741 516 504 604 371 374 370
38.521862 1329939845.201003 517 505 604 371 374 371
38.521862 1329939845.207320 515 505 605 370 371 372
38.563361 1329939845.215807 516 504 604 370 369 372
38.563361 1329939845.224245 516 504 604 370 371 373
38.604631 1329939845.232214 517 504 604 371 375 371
38.604631 1329939845.240606 516 504 604 373 376 371
38.645846 1329939845.248851 515 504 603 373 376 371
38.645846 1329939845.257396 516 503 604 375 378 372
38.679686 1329939845.265994 516 505 605 376 379 372
38.679686 1329939845.274158 515 505 607 378 380 373
38.721337 1329939845.282152 515 505 609 377 378 374
38.721337 1329939845.290738 516 505 609 376 375 373
38.762988 1329939845.299035 517 505 610 377 374 373
38.762988 1329939845.313473 516 505 609 379 371 374
38.804483 1329939845.316630 515 504 609 380 368 371
38.804483 1329939845.324295 515 503 609 378 368 371
38.840283 1329939845.332092 516 504 608 375 367 373
38.840283 1329939845.340377 516 506 608 374 368 374
38.882671 1329939845.348794 517 505 608 376 368 374
38.882671 1329939845.357249 516 505 608 376 368 373
38.921200 1329939845.365734 517 509 607 374 366 371
38.921200 1329939845.374167 516 512 607 372 365 369
38.962900 1329939845.381828 515 508 607 375 364 368
38.962900 1329939845.390694 515 505 607 379 362 368
39.004481 1329939845.398684 514 505 605 381 361 368
39.004481 1329939845.407047 512 505 603 381 359 368
39.046181 1329939845.415313 513 502 602 383 363 368
39.046181 1329939845.424083 512 502 602 382 367 370
39.084915 1329939845.431911 510 503 602 380 369 370
39.084915 1329939845.440205 508 501 601 378 370 372
39.127657 1329939845.448492 509 498 602 376 372 373
39.127657 1329939845.456831 511 501 604 372 373 373
39.162843 1329939845.465358 510 505 606 373 375 373
39.162843 1329939845.473592 509 504 607 376 375 372
39.204048 1329939845.481571 510 502 607 378 375 372
39.204048 1329939845.490401 510 502 606 376 372 373
39.240359 1329939845.498685 510 505 606 377 370 372
39.240359 1329939845.512144 510 503 605 378 369 372
39.279057 1329939845.515659 510 500 604 376 370 373
39.279057 1329939845.523774 511 500 604 376 371 372
39.320429 1329939845.531655 509 503 604 375 373 372
39.320429 1329939845.540223 508 504 604 376 374 373
39.362050 1329939845.548318 508 502 604 376 374 372
39.362050 1329939845.556514 508 501 602 376 374 373
39.403669 1329939845.565022 508 502 600 377 371 375
39.403669 1329939845.573816 508 503 596 376 368 376
39.449984 1329939845.581865 510 502 590 377 367 376
39.449984 1329939845.590311 510 503 580 377 363 378
39.478988 1329939845.598684 507 505 569 378 360 381
39.478988 1329939845.606785 505 513 559 378 365 383
39.526248 1329939845.615140 505 528 552 374 378 386
39.526248 1329939845.623717 505 540 544 368 390 383
39.562360 1329939845.631672 510 551 541 368 397 374
39.562360 1329939845.640515 510 565 538 368 399 363
39.599991 1329939845.648500 517 579 539 374 413 351
39.599991 1329939845.662561 518 588 544 382 442 332
39.637558 1329939845.665839 531 590 550 386 464 314
39.637558 1329939845.673545 541 589 569 385 492 292
39.679598 1329939845.681852 546 590 593 399 522 272
39.679598 1329939845.690131 557 579 623 410 536 255
39.720932 1329939845.698455 578 569 661 405 549 242
39.720932 1329939845.706761 595 549 702 393 554 229
39.762053 1329939845.714738 607 528 738 391 535 225
39.762053 1329939845.723466 611 510 765 407 500 222
39.804179 1329939845.731784 621 483 777 429 464 217
39.804179 1329939845.739977 628 463 777 437 417 221
39.837475 1329939845.748849 622 457 767 437 357 240
39.837475 1329939845.757106 611 466 752 435 309 255
39.878326 1329939845.776571 599 470 728 427 272 259
39.878326 1329939845.782213 590 466 704 420 234 262
39.921019 1329939845.790323 586 464 679 417 218 263
39.921019 1329939845.798797 585 460 658 417 225 268
39.962609 1329939845.807102 587 460 641 415 234 277
39.962609 1329939845.815511 578 460 629 410 240 287
40.003962 1329939845.823798 571 457 618 412 245 297
40.003962 1329939845.832548 563 447 608 420 247 309
40.037406 1329939845.840458 561 437 589 424 239 322
40.037406 1329939845.849645 560 437 575 412 238 336
40.078524 1329939845.858204 552 442 566 404 250 348
40.078524 1329939845.865653 541 446 558 402 261 363
40.120525 1329939845.877228 536 438 551 405 262 377
40.120525 1329939845.882045 533 433 541 410 259 393
40.161208 1329939845.890364 525 438 530 415 259 406
40.161208 1329939845.898658 518 445 520 418 272 414
40.203049 1329939845.907101 517 448 510 415 288 418
40.203049 1329939845.915593 517 452 501 403 307 422
40.246733 1329939845.930141 510 462 496 389 327 424
40.246733 1329939845.933105 506 471 491 375 343 418
40.277627 1329939845.940443 507 467 487 356 358 418
40.277627 1329939845.948501 508 469 488 336 375 425
40.318050 1329939845.957274 508 479 491 325 393 434
40.318050 1329939845.965528 510 486 498 331 408 440
40.368035 1329939845.980054 514 485 504 340 415 446
40.368035 1329939845.984977 512 486 510 345 416 450
40.402930 1329939845.990760 516 491 516 355 423 452
40.402930 1329939845.998339 519 495 521 366 431 456
40.449401 1329939846.007292 520 498 529 384 443 457
40.449401 1329939846.015427 521 507 542 391 456 455
40.486445 1329939846.023512 520 516 555 389 460 452
40.486445 1329939846.032255 524 513 566 385 451 450
40.518460 1329939846.040497 537 500 569 383 443 448
40.518460 1329939846.048739 539 505 576 373 449 449
40.560529 1329939846.057059 535 526 581 358 465 453
40.560529 1329939846.065790 538 520 594 348 479 458
40.603837 1329939846.073618 543 500 608 339 495 463
40.603837 1329939846.101522 544 499 621 328 497 476
40.644317 1329939846.125754 538 524 635 327 487 487
40.644317 1329939846.140582 543 544 649 330 477 493
40.688752 1329939846.143590 551 536 661 337 462 495
40.688752 1329939846.148932 566 525 664 340 440 498
40.718994 1329939846.156989 575 529 668 351 428 495
40.718994 1329939846.166932 576 549 676 381 442 486
40.760879 1329939846.173788 577 554 688 413 460 478
40.760879 1329939846.182240 575 544 698 407 465 474
40.800465 1329939846.190492 568 544 710 384 453 471
40.800465 1329939846.198747 564 552 721 377 433 469
40.848375 1329939846.206722 564 543 727 374 407 466
40.848375 1329939846.215428 562 535 723 367 363 459
40.884960 1329939846.223805 559 538 712 361 321 453
40.884960 1329939846.232215 562 543 696 360 294 450
40.918584 1329939846.240020 556 548 682 365 288 443
40.918584 1329939846.248860 545 545 671 374 283 437
40.960396 1329939846.256630 539 535 660 380 273 433
40.960396 1329939846.265360 541 533 649 388 272 432
41.008496 1329939846.275630 539 543 641 395 278 430
41.008496 1329939846.281674 534 544 636 406 285 427
41.051482 1329939846.289796 527 538 630 413 284 426
41.051482 1329939846.298205 520 543 624 417 278 424
41.079242 1329939846.306362 516 555 621 418 275 414
41.079242 1329939846.314873 516 551 615 412 277 401
41.127611 1329939846.329944 514 546 609 400 277 392
41.127611 1329939846.343394 511 553 603 397 279 387
41.159404 1329939846.347262 506 551 599 401 285 380
41.159404 1329939846.355615 510 541 594 406 291 374
41.200619 1329939846.364006 511 537 586 402 286 368
41.200619 1329939846.372168 505 542 580 401 276 362
41.241941 1329939846.380414 503 544 570 406 265 356
41.241941 1329939846.388562 502 539 556 404 260 348
41.284621 1329939846.396737 502 536 542 393 261 341
41.284621 1329939846.405240 499 540 533 381 268 332
41.325215 1329939846.413346 500 540 522 372 280 323
41.325215 1329939846.421766 500 532 515 358 296 324
41.364586 1329939846.429892 500 528 513 349 317 322
41.364586 1329939846.438535 502 526 515 352 341 316
41.400498 1329939846.446413 501 515 517 359 362 307
41.400498 1329939846.454843 505 500 521 351 379 301
41.442006 1329939846.464971 509 499 529 339 398 293
41.442006 1329939846.471759 504 500 539 327 406 289
41.484022 1329939846.481639 505 488 544 318 407 288
41.484022 1329939846.492619 506 476 552 317 413 288
41.519504 1329939846.497331 506 473 557 316 420 287
41.519504 1329939846.504830 504 468 564 317 421 295
41.559488 1329939846.513273 503 465 572 323 428 304
41.559488 1329939846.526673 503 462 579 329 441 305
41.600720 1329939846.537560 504 460 584 324 452 303
41.600720 1329939846.539576 501 455 593 319 455 310
41.642579 1329939846.546762 503 455 602 324 463 319
41.642579 1329939846.555043 509 463 612 325 473 327
41.684767 1329939846.563389 505 469 621 326 471 332
41.684767 1329939846.571822 500 468 626 330 455 342
41.726121 1329939846.580145 504 463 633 338 450 352
41.726121 1329939846.598060 508 467 637 345 450 353
41.759820 1329939846.604855 507 473 640 348 436 354
41.759820 1329939846.613727 499 478 641 360 410 355
41.801153 1329939846.621855 505 484 638 373 395 359
41.801153 1329939846.630113 515 487 634 376 397 361
41.842983 1329939846.638556 518 491 633 372 399 360
41.842983 1329939846.646944 509 490 634 362 395 362
41.884921 1329939846.654923 508 487 633 359 394 363
41.884921 1329939846.663672 512 487 632 360 399 364
41.918419 1329939846.671650 516 489 629 360 403 367
41.918419 1329939846.679910 515 495 628 358 397 370
41.966333 1329939846.688245 511 501 627 359 389 370
41.966333 1329939846.696674 511 503 625 362 383 370
42.001432 1329939846.713461 516 498 622 368 379 367
42.001432 1329939846.717462 516 498 621 369 377 365
42.042855 1329939846.721820 511 504 620 370 370 364
42.042855 1329939846.729752 507 504 619 371 367 367
42.086277 1329939846.738745 509 500 616 371 368 370
42.086277 1329939846.746750 513 499 614 369 374 371
42.118556 1329939846.755267 514 503 614 368 379 371
42.118556 1329939846.763658 511 506 615 369 378 368
42.159606 1329939846.771813 510 502 614 371 375 368
42.159606 1329939846.779834 511 496 611 371 373 367
42.200074 1329939846.788492 511 496 607 374 373 370
42.200074 1329939846.796910 512 505 606 376 376 373
42.242895 1329939846.805295 507 507 606 375 380 373
42.242895 1329939846.814435 507 501 608 374 382 372
42.284341 1329939846.822055 507 498 608 372 381 373
42.284341 1329939846.829897 508 501 607 374 377 372
42.326120 1329939846.838227 509 506 607 379 380 372
42.326120 1329939846.846796 510 506 608 382 382 371
42.359692 1329939846.855187 513 504 609 379 384 371
42.359692 1329939846.864079 514 503 610 376 383 370
42.401290 1329939846.871794 515 503 609 379 379 370
42.401290 1329939846.879848 517 501 609 383 380 372
42.442683 1329939846.888521 517 499 609 385 379 370
42.442683 1329939846.896706 516 500 608 382 375 370
42.484256 1329939846.905161 515 501 607 382 371 373
42.484256 1329939846.913503 514 502 606 382 371 372
42.525686 1329939846.921807 515 502 605 381 373 372
42.525686 1329939846.929675 514 503 605 378 374 371
42.558965 1329939846.938786 512 502 606 376 375 370
42.558965 1329939846.946281 512 500 605 375 376 369
42.600937 1329939846.954975 513 498 605 371 374 368
42.600937 1329939846.963042 513 498 605 371 374 369
42.642676 1329939846.975980 512 501 605 372 373 369
42.642676 1329939846.979702 512 502 605 375 372 372
42.683960 1329939846.988118 514 502 605 377 372 372
42.683960 1329939846.996656 513 502 604 378 374 372
42.719603 1329939847.004963 514 502 604 377 375 371
42.719603 1329939847.020829 513 503 605 377 374 370
42.759119 1329939847.023089 513 503 605 378 373 370
42.759119 1329939847.029472 511 502 604 378 372 370
42.801080 1329939847.038019 512 502 604 378 370 370
42.801080 1329939847.046405 513 502 604 378 371 370
42.842301 1329939847.054871 512 501 604 377 372 372
42.842301 1329939847.062989 511 502 604 378 373 372
42.883752 1329939847.071291 511 502 604 377 374 371
42.883752 1329939847.084344 511 502 604 376 374 371
42.925428 1329939847.095928 512 500 605 373 374 372
42.925428 1329939847.097811 512 501 605 375 374 373
42.958525 1329939847.104649 511 501 606 378 373 373
42.958525 1329939847.124662 511 502 605 377 373 373
43.000614 1329939847.136354 511 503 605 373 374 372
43.000614 1329939847.137865 511 502 606 371 374 372
43.045702 1329939847.145534 510 502 606 371 371 373
43.045702 1329939847.154075 510 502 604 371 370 374
43.083337 1329939847.162183 511 503 603 370 369 374
43.083337 1329939847.174851 510 503 604 371 370 373
43.125415 1329939847.178901 509 501 604 373 372 373
43.125415 1329939847.186969 509 500 602 374 376 373
43.167153 1329939847.195417 510 502 601 374 378 374
43.167153 1329939847.203729 509 504 603 375 380 372
43.200136 1329939847.212130 510 502 605 374 382 374
43.200136 1329939847.220111 511 501 605 372 380 374
43.241770 1329939847.228500 512 503 605 373 378 374
43.241770 1329939847.236620 512 505 605 376 377 375
43.288009 1329939847.245240 512 505 606 375 379 373
43.288009 1329939847.253482 511 503 607 375 378 372
43.325294 1329939847.262464 511 504 606 374 377 370
43.325294 1329939847.283173 511 505 605 372 375 370
43.358710 1329939847.286812 510 503 605 371 375 370
43.358710 1329939847.294909 511 502 606 371 375 370
43.399901 1329939847.303414 510 503 605 372 376 370
43.399901 1329939847.311625 511 504 605 375 375 369
43.446424 1329939847.319959 512 502 605 377 377 369
43.446424 1329939847.333768 512 501 604 380 379 370
43.483350 1329939847.355336 511 503 604 381 378 369
43.483350 1329939847.365189 510 503 603 381 377 370
43.525074 1329939847.369844 511 501 601 381 375 369
43.525074 1329939847.378554 512 500 599 377 376 370
43.566301 1329939847.387006 512 502 598 376 380 369
43.566301 1329939847.395209 513 506 597 376 381 370
43.604352 1329939847.412633 513 505 598 374 383 369
43.604352 1329939847.433622 513 503 599 372 383 367
43.641825 1329939847.444465 513 503 599 373 384 365
43.641825 1329939847.446033 513 504 599 374 381 366
43.683663 1329939847.453782 514 504 598 375 382 365
43.683663 1329939847.462048 515 503 598 375 387 366
43.724474 1329939847.470358 515 503 599 374 390 366
43.724474 1329939847.478731 514 505 600 373 391 365
43.773381 1329939847.487117 516 505 600 376 390 363
43.773381 1329939847.495623 517 504 600 377 391 364
43.799916 1329939847.503887 517 503 601 377 393 364
43.799916 1329939847.512120 518 504 602 376 395 364
43.841260 1329939847.521114 517 506 603 378 395 365
43.841260 1329939847.529113 519 506 603 378 393 363
43.890358 1329939847.542332 519 505 603 377 392 363
43.890358 1329939847.545800 520 504 604 374 393 360
43.924669 1329939847.554611 520 505 604 373 391 359
43.924669 1329939847.562510 519 507 604 374 390 359
43.958230 1329939847.571160 520 507 604 375 386 358
43.958230 1329939847.579117 522 504 604 373 384 358
43.999171 1329939847.589165 522 503 603 369 384 358
43.999171 1329939847.595713 521 502 604 368 385 359
44.040966 1329939847.614906 521 502 605 370 389 359
44.040966 1329939847.616962 521 503 606 370 388 358
44.081884 1329939847.620954 522 504 607 367 383 359
44.081884 1329939847.641882 522 503 608 366 382 360
44.124738 1329939847.665012 522 506 609 370 383 361
44.124738 1329939847.687852 523 508 609 370 381 361
44.166606 1329939847.702150 523 507 610 370 380 358
44.166606 1329939847.704448 523 505 610 371 379 357
44.199415 1329939847.713008 524 507 610 374 381 357
44.199415 1329939847.721196 523 509 610 375 382 357
44.240070 1329939847.729776 523 510 609 373 378 356
44.240070 1329939847.739255 524 507 610 371 377 356
44.283133 1329939847.746467 524 507 611 374 378 356
44.283133 1329939847.754722 522 509 610 379 374 355
44.324826 1329939847.763095 520 506 607 378 369 353
44.324826 1329939847.770997 522 505 605 377 367 353
44.366316 1329939847.779777 520 507 604 374 371 350
44.366316 1329939847.787548 518 509 604 369 377 349
44.399975 1329939847.796398 518 511 606 368 383 349
44.399975 1329939847.804731 521 508 607 372 389 350
44.446590 1329939847.813118 522 508 608 378 397 350
44.446590 1329939847.821117 523 509 612 382 401 348
44.482974 1329939847.830108 526 508 615 383 399 345
44.482974 1329939847.838028 526 507 616 382 390 342
44.524324 1329939847.851071 528 505 617 384 383 344
44.524324 1329939847.856712 528 504 617 386 381 344
44.558954 1329939847.869439 527 503 617 384 375 346
44.558954 1329939847.871986 526 505 614 380 367 346
44.599221 1329939847.879643 526 504 612 377 365 348
44.599221 1329939847.888111 527 502 611 380 369 347
44.641105 1329939847.913490 527 502 610 375 372 346
44.641105 1329939847.916295 525 504 609 370 373 347
44.682418 1329939847.928677 524 508 611 371 376 347
44.682418 1329939847.931478 525 506 612 372 377 346
44.719012 1329939847.938249 526 504 613 371 377 344
44.719012 1329939847.946240 525 505 614 374 376 345
44.757405 1329939847.954930 526 507 614 378 376 345
44.757405 1329939847.963215 526 508 615 378 379 345
44.798949 1329939847.971417 526 509 615 378 379 345
44.798949 1329939847.979597 525 508 616 382 377 342
44.840689 1329939847.987935 525 508 617 388 377 340
44.840689 1329939847.996405 528 506 617 386 378 339
44.881420 1329939848.004749 528 503 618 384 375 338
44.881420 1329939848.012946 529 502 619 383 374 338
44.932784 1329939848.021161 528 501 619 383 372 338
44.932784 1329939848.029463 528 500 619 383 369 339
44.960954 1329939848.037776 526 497 620 383 366 340
44.960954 1329939848.046103 526 497 621 387 367 342
44.999047 1329939848.056455 526 497 620 387 371 341
44.999047 1329939848.063164 527 497 621 379 374 341
45.040833 1329939848.071371 527 493 623 371 374 341
45.040833 1329939848.079526 526 494 623 374 372 343
45.082494 1329939848.087892 527 496 624 380 373 345
45.082494 1329939848.095980 528 494 624 381 372 345
45.124027 1329939848.116621 528 491 623 383 363 346
45.124027 1329939848.139623 528 492 622 384 357 348
45.161725 1329939848.152209 528 491 619 386 353 349
45.161725 1329939848.156774 529 489 615 386 352 348
45.198924 1329939848.162786 527 489 611 385 347 349
45.198924 1329939848.171058 524 490 609 385 343 350
45.240791 1329939848.179572 524 488 607 383 342 351
45.240791 1329939848.187592 522 487 604 380 338 350
45.281774 1329939848.196145 521 489 602 379 336 351
45.281774 1329939848.204130 520 487 600 382 341 354
45.323807 1329939848.212913 519 488 598 384 346 357
45.323807 1329939848.220897 516 490 595 385 348 360
45.358880 1329939848.229430 514 491 594 385 350 362
45.358880 1329939848.238868 514 491 592 382 354 363
45.398719 1329939848.246306 512 490 594 377 360 363
45.398719 1329939848.254205 510 490 596 380 361 366
45.440708 1329939848.262650 509 490 595 382 357 371
45.440708 1329939848.271118 509 490 594 384 359 374
45.482176 1329939848.286871 511 491 595 386 367 372
45.482176 1329939848.289368 511 491 598 384 372 371
45.519074 1329939848.296189 508 491 601 381 369 373
45.519074 1329939848.304056 507 490 602 382 362 378
45.572028 1329939848.312586 508 490 601 384 358 381
45.572028 1329939848.320863 509 490 600 387 359 381
45.601357 1329939848.329384 510 488 601 383 361 380
45.601357 1329939848.349709 507 489 602 381 358 379
45.639704 1329939848.354173 507 488 601 380 354 380
45.639704 1329939848.362543 508 488 600 383 353 384
45.681482 1329939848.370778 509 487 600 387 356 384
45.681482 1329939848.379417 508 487 600 384 360 383
45.722819 1329939848.393696 505 489 600 379 356 382
45.722819 1329939848.396351 505 489 600 378 353 383
45.763044 1329939848.404316 505 486 597 381 355 383
45.763044 1329939848.412410 505 486 597 380 360 384
45.797205 1329939848.420785 503 491 598 375 363 384
45.797205 1329939848.429142 502 492 599 376 364 380
45.839074 1329939848.437681 500 489 599 375 365 381
45.839074 1329939848.456365 500 487 600 376 364 379
45.880549 1329939848.462603 499 488 600 374 366 380
45.880549 1329939848.470749 499 490 601 374 367 382
45.922311 1329939848.479384 500 490 601 376 365 384
45.922311 1329939848.487426 498 489 601 379 365 386
45.963711 1329939848.507049 497 490 602 382 365 387
45.963711 1329939848.521097 496 491 603 384 366 389
46.004881 1329939848.529296 496 490 602 383 363 391
46.004881 1329939848.537170 496 491 602 383 358 393
46.038743 1329939848.545625 497 491 599 382 355 392
46.038743 1329939848.553865 496 489 596 380 357 392
46.079837 1329939848.562756 494 489 596 378 359 392
46.079837 1329939848.581095 493 493 596 377 358 392
46.121659 1329939848.587389 492 492 595 378 357 394
46.121659 1329939848.595874 492 490 593 376 360 394
46.163105 1329939848.604240 493 491 592 373 362 396
46.163105 1329939848.612179 492 495 593 374 364 395
46.208929 1329939848.631882 491 493 593 376 367 397
46.208929 1329939848.645822 489 493 593 376 369 397
46.237651 1329939848.654069 490 495 593 379 372 395
46.237651 1329939848.662626 489 495 593 381 373 394
46.279013 1329939848.670936 489 494 595 380 374 393
46.279013 1329939848.678760 491 495 596 380 375 394
46.321131 1329939848.687451 489 496 597 383 374 393
46.321131 1329939848.705830 488 495 598 383 372 394
46.375484 1329939848.712348 488 494 597 380 369 392
46.375484 1329939848.720331 492 494 595 379 367 393
46.403611 1329939848.728681 492 494 595 378 369 393
