imu_t vicon_t accel_x accel_y accel_z gyro_x gyro_y gyro_z
0.011207 1329704302.493088 518 501 606 370 385 368
1.025743 1329704302.501260 506 503 605 374 376 370
1.084110 1329704302.518023 506 503 605 374 376 369
1.084110 1329704302.526234 506 503 605 374 376 370
1.084110 1329704302.534216 506 503 605 375 376 370
1.084110 1329704302.543759 506 503 605 374 376 370
1.084110 1329704302.551132 506 503 605 374 376 370
1.084110 1329704302.560938 506 503 605 375 376 371
1.142640 1329704302.567952 506 503 605 374 376 370
1.142640 1329704302.575964 506 503 605 373 376 369
1.142640 1329704302.584256 506 503 605 374 376 370
1.142640 1329704302.592877 506 503 605 374 376 370
1.142640 1329704302.601099 506 503 605 374 375 370
1.142640 1329704302.613603 506 503 605 374 377 370
1.200749 1329704302.617865 506 503 605 375 375 370
1.200749 1329704302.625853 506 502 605 374 376 371
1.200749 1329704302.634276 506 502 605 374 376 371
1.200749 1329704302.643014 506 502 605 375 377 370
1.200749 1329704302.651164 506 503 605 374 377 371
1.200749 1329704302.659644 506 503 605 374 377 370
1.267097 1329704302.668003 506 503 605 374 376 370
1.267097 1329704302.675948 506 503 605 373 376 370
1.267097 1329704302.684080 506 503 605 375 377 371
1.267097 1329704302.692753 506 503 605 374 376 371
1.267097 1329704302.701076 506 503 605 373 377 370
1.267097 1329704302.709416 506 503 605 372 376 370
1.322119 1329704302.728752 506 503 605 373 376 369
1.322119 1329704302.734269 506 503 605 374 376 370
1.322119 1329704302.742422 506 502 605 375 375 370
1.322119 1329704302.751102 506 503 605 374 375 370
1.322119 1329704302.759345 506 503 605 375 376 370
1.322119 1329704302.767729 506 503 605 374 376 371
1.383589 1329704302.781595 506 503 605 374 376 370
1.383589 1329704302.784155 506 503 605 374 377 370
1.383589 1329704302.792580 506 503 605 374 377 371
1.383589 1329704302.801046 506 503 605 374 377 371
1.383589 1329704302.809990 506 503 605 374 376 371
1.383589 1329704302.817349 506 503 605 376 376 371
1.441380 1329704302.826715 506 503 605 374 376 370
1.441380 1329704302.833930 506 503 605 376 375 371
1.441380 1329704302.842193 506 503 605 375 375 370
1.441380 1329704302.850900 506 503 605 375 375 369
1.441380 1329704302.859083 506 503 605 374 376 371
1.441380 1329704302.867479 506 503 605 374 377 370
1.501242 1329704302.876773 506 503 605 375 375 371
1.501242 1329704302.896354 506 503 605 374 376 371
1.501242 1329704302.900552 506 503 605 375 377 370
1.501242 1329704302.909164 506 503 605 374 376 370
1.501242 1329704302.917481 506 503 605 374 375 371
1.501242 1329704302.925844 507 503 605 374 376 370
1.567027 1329704302.944417 506 503 605 375 377 370
1.567027 1329704302.960142 506 503 605 374 375 371
1.567027 1329704302.967181 506 503 605 374 376 370
1.567027 1329704302.975933 506 503 605 374 376 370
1.567027 1329704302.983918 506 503 605 374 376 371
1.567027 1329704302.992136 506 503 605 374 377 370
1.625277 1329704303.001044 506 503 605 374 376 369
1.625277 1329704303.009073 506 503 605 374 376 370
1.625277 1329704303.017105 506 503 606 374 376 369
1.625277 1329704303.025640 506 503 605 374 376 370
1.625277 1329704303.034073 506 503 605 374 375 370
1.625277 1329704303.042488 506 503 605 374 376 370
1.683242 1329704303.050700 506 503 605 374 377 369
1.683242 1329704303.059298 506 503 605 374 377 370
1.683242 1329704303.067236 506 503 605 374 376 371
1.683242 1329704303.075781 506 503 605 375 376 370
1.683242 1329704303.083682 506 503 605 375 377 370
1.683242 1329704303.092068 506 503 605 374 376 370
1.741064 1329704303.100568 506 503 605 373 377 371
1.741064 1329704303.119095 506 503 605 375 376 370
1.741064 1329704303.125779 506 503 605 374 376 371
1.741064 1329704303.134136 506 503 605 374 376 370
1.741064 1329704303.142184 506 503 605 374 376 370
1.741064 1329704303.150159 506 503 605 374 376 370
1.804869 1329704303.159032 506 502 605 374 376 369
1.804869 1329704303.171137 506 503 605 374 376 371
1.804869 1329704303.175640 506 502 605 374 376 370
1.804869 1329704303.189026 506 503 605 374 376 370
1.804869 1329704303.191980 506 503 605 374 376 370
1.804869 1329704303.200516 506 504 604 374 376 370
1.877104 1329704303.208676 505 502 607 374 376 371
1.877104 1329704303.217233 506 503 606 374 376 370
1.877104 1329704303.225370 507 502 602 375 376 371
1.877104 1329704303.233940 506 503 605 375 377 370
1.877104 1329704303.242109 506 503 606 374 376 370
1.877104 1329704303.250331 506 503 606 374 376 370
1.924160 1329704303.258742 507 503 604 374 376 370
1.924160 1329704303.274664 506 503 606 374 376 371
1.924160 1329704303.277953 506 502 607 374 376 370
1.924160 1329704303.290155 506 502 605 374 376 371
1.924160 1329704303.294797 506 502 604 374 376 369
1.924160 1329704303.300070 506 503 605 373 376 370
1.982364 1329704303.308684 506 503 606 374 375 370
1.982364 1329704303.317302 506 503 605 374 376 370
1.982364 1329704303.325221 507 503 604 374 376 371
1.982364 1329704303.333847 506 503 606 375 377 371
1.982364 1329704303.341982 506 502 606 374 376 370
1.982364 1329704303.350351 507 502 605 375 376 370
2.032415 1329704303.358836 507 502 605 374 376 370
2.032415 1329704303.367257 506 503 606 374 376 370
2.032415 1329704303.377176 506 503 606 375 376 370
2.032415 1329704303.383804 506 503 605 373 377 370
2.065940 1329704303.391611 506 503 606 374 376 370
2.065940 1329704303.400210 507 502 605 375 377 371
2.093072 1329704303.408649 507 503 606 374 376 371
2.126553 1329704303.417138 507 503 605 374 375 370
2.126553 1329704303.430331 505 503 605 375 375 370
2.156858 1329704303.435988 505 502 605 374 376 370
2.181631 1329704303.450414 506 503 605 374 376 371
2.181631 1329704303.471414 507 503 605 374 376 370
2.215216 1329704303.475249 506 503 605 374 376 369
2.240131 1329704303.483709 506 503 605 375 376 370
2.240131 1329704303.491908 506 503 605 374 376 370
2.274606 1329704303.500155 506 503 605 374 376 370
2.298668 1329704303.508691 506 503 605 375 375 370
2.298668 1329704303.516787 506 503 604 374 376 370
2.331503 1329704303.525255 506 503 605 375 376 370
2.365047 1329704303.533812 506 503 605 375 376 370
2.365047 1329704303.542310 506 502 605 374 376 371
2.389766 1329704303.549989 506 503 605 375 377 370
2.424061 1329704303.558629 506 503 605 374 376 370
2.424061 1329704303.566900 506 503 605 373 375 371
2.456902 1329704303.575241 506 503 605 374 376 370
2.479150 1329704303.583525 506 503 605 374 376 370
2.479150 1329704303.591912 507 503 605 374 376 370
2.515073 1329704303.600229 506 503 605 374 376 371
2.542975 1329704303.618570 506 503 605 374 376 371
2.542975 1329704303.625199 506 503 605 373 376 370
2.573120 1329704303.633653 506 503 605 375 376 370
2.619530 1329704303.642145 506 503 605 375 376 370
2.619530 1329704303.650483 506 503 605 374 376 370
2.633010 1329704303.658090 506 503 605 374 376 370
2.660235 1329704303.666627 506 503 605 374 376 369
2.660235 1329704303.675377 506 503 605 374 376 370
2.696629 1329704303.683524 506 503 605 374 376 370
2.723198 1329704303.691661 506 503 605 374 376 370
2.723198 1329704303.700204 506 503 605 375 377 371
2.759364 1329704303.708106 506 502 605 374 376 371
2.781563 1329704303.716336 506 503 605 373 376 371
2.781563 1329704303.735671 506 503 605 375 375 371
2.811121 1329704303.742271 506 503 605 374 377 369
2.838763 1329704303.749974 507 503 606 373 376 372
2.838763 1329704303.758399 507 503 605 375 376 369
2.873325 1329704303.766589 506 503 605 373 376 370
2.906516 1329704303.774547 505 503 604 375 376 370
2.906516 1329704303.789544 506 503 605 374 377 370
2.930991 1329704303.794551 507 502 605 374 377 370
2.964897 1329704303.807192 506 503 605 374 376 370
2.964897 1329704303.821610 505 503 605 375 375 370
2.990278 1329704303.835377 506 503 605 375 377 372
3.033674 1329704303.841125 507 503 605 373 376 370
3.033674 1329704303.853662 506 502 605 374 376 370
3.049657 1329704303.858317 505 503 605 375 376 371
3.104828 1329704303.866387 505 503 605 374 376 370
3.104828 1329704303.875119 506 503 605 374 377 370
3.133857 1329704303.883041 507 503 605 374 376 370
3.133857 1329704303.890923 506 503 605 374 375 370
3.173712 1329704303.903213 506 503 605 374 375 371
3.173712 1329704303.908441 506 503 605 373 376 370
3.214629 1329704303.916383 506 503 605 373 376 371
3.214629 1329704303.925024 506 503 605 374 376 370
3.256301 1329704303.933142 506 503 605 374 376 370
3.256301 1329704303.940820 506 503 605 375 376 370
3.298015 1329704303.950041 506 503 605 374 376 370
3.298015 1329704303.958262 506 503 605 374 376 369
3.331213 1329704303.966297 506 503 605 374 376 370
3.331213 1329704303.974789 506 503 605 373 377 370
3.372953 1329704303.983059 507 503 605 375 376 370
3.372953 1329704303.990864 507 503 605 373 376 370
3.414304 1329704304.000684 506 503 606 375 376 370
3.414304 1329704304.008288 506 503 605 374 376 370
3.456094 1329704304.016961 506 503 605 374 376 370
3.456094 1329704304.024790 506 503 605 374 376 370
3.514956 1329704304.033212 506 503 606 374 377 371
3.514956 1329704304.040674 506 503 605 374 376 370
3.530935 1329704304.049908 506 503 605 374 376 371
3.530935 1329704304.058235 507 503 605 375 380 370
3.572684 1329704304.066461 505 503 606 375 381 371
3.572684 1329704304.074793 506 502 606 374 379 370
3.616566 1329704304.083000 509 502 605 374 377 370
3.616566 1329704304.090702 509 503 606 375 378 370
3.656050 1329704304.099909 507 503 605 374 378 368
3.656050 1329704304.107942 504 503 604 374 375 370
3.697637 1329704304.116189 504 502 605 374 374 370
3.697637 1329704304.124706 505 503 605 374 379 370
3.730703 1329704304.132967 508 503 605 376 384 370
3.730703 1329704304.140621 508 502 606 377 387 370
3.772644 1329704304.155171 507 503 606 378 391 369
3.772644 1329704304.157933 507 502 605 375 385 371
3.814360 1329704304.166023 505 505 604 375 382 371
3.814360 1329704304.174361 506 500 605 375 386 375
3.855697 1329704304.182708 506 504 605 375 388 362
3.898237 1329704304.190469 517 503 611 379 381 353
3.931390 1329704304.199171 504 505 619 417 364 368
3.972625 1329704304.207621 516 511 618 460 373 357
4.012416 1329704304.215795 520 509 633 439 371 325
4.056034 1329704304.223985 515 506 636 384 364 307
4.097348 1329704304.232484 511 506 624 356 363 298
4.155767 1329704304.240566 505 509 612 357 386 283
4.172596 1329704304.249092 516 510 615 363 409 277
4.213679 1329704304.257510 520 507 615 401 387 269
4.255190 1329704304.265820 525 506 613 435 370 251
4.280812 1329704304.273860 524 500 609 431 359 247
4.320160 1329704304.282495 522 497 607 421 356 248
4.357398 1329704304.290374 522 494 606 409 358 245
4.357398 1329704304.304348 522 492 602 403 363 239
4.407600 1329704304.307492 521 490 602 391 366 238
4.407600 1329704304.321595 518 488 602 373 368 241
4.434564 1329704304.335047 524 479 602 355 371 250
4.434564 1329704304.340553 516 484 598 343 379 260
4.472264 1329704304.348374 513 481 597 338 390 273
4.472264 1329704304.357515 516 488 594 336 394 281
4.514086 1329704304.376599 511 484 598 334 375 311
4.514086 1329704304.381805 521 479 602 351 353 322
4.555617 1329704304.390423 521 489 602 365 336 325
4.555617 1329704304.399609 524 488 602 369 332 317
4.597110 1329704304.406644 523 492 598 361 330 303
4.597110 1329704304.415860 519 495 601 354 331 295
4.630491 1329704304.423721 517 489 599 347 327 292
4.630491 1329704304.432013 515 493 597 341 326 287
4.671816 1329704304.440376 514 497 597 333 333 285
4.671816 1329704304.448642 517 498 597 331 340 280
4.713692 1329704304.456762 516 497 599 334 342 278
4.713692 1329704304.465466 506 497 596 331 337 278
4.755825 1329704304.473810 511 497 596 324 343 284
4.755825 1329704304.481797 521 498 601 325 348 284
4.798120 1329704304.490381 536 500 604 331 344 276
4.798120 1329704304.498569 515 497 606 332 323 270
4.831480 1329704304.506748 504 493 602 328 312 269
4.831480 1329704304.515243 517 491 600 325 320 267
4.872810 1329704304.523648 521 493 600 321 330 279
4.872810 1329704304.531840 503 494 602 323 331 276
4.914388 1329704304.540190 512 492 600 335 333 277
4.914388 1329704304.548364 505 492 602 350 335 283
4.957267 1329704304.556691 505 498 603 361 341 294
4.957267 1329704304.565338 506 500 603 355 346 294
5.004257 1329704304.573616 508 502 601 346 353 284
5.004257 1329704304.585020 508 506 601 343 354 282
5.031353 1329704304.592526 505 506 598 345 353 278
5.031353 1329704304.598306 506 505 594 352 352 278
5.072560 1329704304.606561 504 501 590 365 357 283
5.072560 1329704304.615007 504 496 585 375 367 292
5.114153 1329704304.626031 505 490 583 375 379 301
5.114153 1329704304.631308 512 479 584 372 389 314
5.155409 1329704304.640083 521 468 584 361 391 328
5.155409 1329704304.648195 526 457 583 356 393 350
5.202656 1329704304.656361 530 448 585 362 399 372
5.202656 1329704304.664982 538 439 588 366 411 395
5.230372 1329704304.673492 542 431 594 370 429 418
5.230372 1329704304.681135 544 422 604 385 443 446
5.272917 1329704304.689809 549 414 610 413 441 481
5.272917 1329704304.697923 555 413 615 442 433 523
5.314225 1329704304.706470 564 414 611 458 432 560
5.314225 1329704304.714717 571 416 610 456 443 589
5.355390 1329704304.723211 578 422 614 443 471 623
5.355390 1329704304.731396 592 428 620 425 482 651
5.396481 1329704304.739634 605 434 622 419 472 671
5.396481 1329704304.748026 610 438 627 435 466 689
5.438520 1329704304.756309 612 451 632 431 482 720
5.438520 1329704304.764738 623 464 637 408 485 737
5.471061 1329704304.774114 634 473 638 401 470 738
5.471061 1329704304.781054 643 481 639 419 458 730
5.515977 1329704304.789751 640 490 645 429 452 726
5.515977 1329704304.798094 642 500 649 435 438 719
5.555287 1329704304.806262 641 505 648 439 421 710
5.555287 1329704304.814501 639 510 648 446 415 699
5.595562 1329704304.825336 633 517 649 447 410 676
5.595562 1329704304.831027 619 519 647 451 401 648
5.639910 1329704304.839594 609 515 643 464 386 624
5.639910 1329704304.847926 604 505 637 492 379 604
5.671762 1329704304.856439 594 500 630 496 385 592
5.671762 1329704304.864507 577 500 623 474 386 587
5.712014 1329704304.872941 556 498 606 409 393 566
5.758232 1329704304.881299 545 503 598 306 411 541
5.795112 1329704304.889282 534 515 593 271 402 515
5.836691 1329704304.897823 530 523 592 271 401 495
5.836691 1329704304.906465 522 526 592 276 399 473
5.870134 1329704304.914482 520 528 591 291 391 454
5.870134 1329704304.923466 515 529 589 307 382 437
5.917545 1329704304.931254 516 529 586 323 376 419
5.917545 1329704304.939551 512 528 584 347 372 401
5.962091 1329704304.947753 508 527 582 374 370 389
5.962091 1329704304.956369 511 524 581 383 373 376
5.995209 1329704304.964316 508 522 581 386 375 364
5.995209 1329704304.978630 507 519 582 386 377 355
6.036204 1329704304.992313 506 517 582 380 382 345
6.036204 1329704305.014556 507 514 583 373 386 336
6.070030 1329704305.025798 505 509 585 367 393 327
6.070030 1329704305.031161 505 507 588 364 400 324
6.111416 1329704305.042410 508 504 591 364 404 323
6.111416 1329704305.053598 510 503 594 370 406 324
6.153231 1329704305.056226 516 505 596 370 405 322
6.153231 1329704305.064778 524 505 597 367 404 316
6.195197 1329704305.072640 521 501 600 363 407 306
6.195197 1329704305.084504 518 498 602 361 408 297
6.232795 1329704305.093577 518 497 606 363 402 292
6.232795 1329704305.097577 520 496 606 367 397 290
6.270086 1329704305.119021 530 496 607 369 396 287
6.270086 1329704305.132504 528 498 608 370 397 280
6.311327 1329704305.134316 529 498 608 371 395 270
6.311327 1329704305.139512 531 495 610 369 394 261
6.353276 1329704305.147648 535 492 611 367 393 254
6.353276 1329704305.159751 534 490 612 362 391 250
6.391020 1329704305.182419 534 487 612 360 389 246
6.391020 1329704305.196170 534 484 612 360 390 245
6.436415 1329704305.200330 534 482 611 359 387 244
6.436415 1329704305.206462 535 484 609 352 383 250
6.478820 1329704305.214505 533 484 607 345 382 248
6.478820 1329704305.222714 532 484 605 344 388 246
6.511535 1329704305.237235 536 483 605 342 395 246
6.511535 1329704305.241306 533 479 608 339 406 242
6.552978 1329704305.247694 534 478 612 339 409 242
6.552978 1329704305.258850 536 477 614 342 403 249
6.594457 1329704305.264343 535 475 616 347 401 256
6.594457 1329704305.272713 539 475 617 355 400 259
6.636320 1329704305.281073 541 476 619 367 394 263
6.636320 1329704305.297041 539 477 619 369 390 270
6.673149 1329704305.298908 539 475 621 363 389 272
6.673149 1329704305.310524 536 475 624 360 384 273
6.712317 1329704305.314187 540 477 623 356 375 279
6.712317 1329704305.322788 538 481 619 343 365 293
6.752896 1329704305.338203 536 481 616 331 367 299
6.752896 1329704305.340462 532 481 616 334 372 298
6.794913 1329704305.365017 532 483 615 341 374 298
6.794913 1329704305.372821 536 485 614 343 370 308
6.836539 1329704305.380514 532 486 615 346 365 315
6.836539 1329704305.389487 527 486 614 359 364 318
6.878536 1329704305.397682 528 487 613 372 363 320
6.878536 1329704305.405962 528 489 612 380 361 322
6.912031 1329704305.422375 529 490 611 380 359 327
6.912031 1329704305.424724 529 489 611 377 362 326
6.953078 1329704305.430435 525 488 611 378 363 327
6.953078 1329704305.439575 524 489 613 378 362 337
6.995100 1329704305.447843 524 491 616 382 358 349
6.995100 1329704305.455997 522 494 616 380 348 351
7.030276 1329704305.464371 517 495 613 376 339 346
7.030276 1329704305.473973 517 495 610 368 337 343
7.070023 1329704305.480743 516 496 609 364 341 344
7.070023 1329704305.489743 514 497 609 366 343 348
7.111624 1329704305.498018 514 498 609 367 342 351
7.111624 1329704305.506235 512 501 607 369 339 354
7.153361 1329704305.514207 515 502 605 368 335 351
7.153361 1329704305.533186 508 504 600 369 332 346
7.195288 1329704305.546499 507 505 597 366 335 345
7.195288 1329704305.549171 505 505 595 362 343 346
7.233897 1329704305.556010 504 504 594 360 349 345
7.233897 1329704305.564576 502 504 591 363 350 344
7.281375 1329704305.572622 502 503 593 367 347 345
7.281375 1329704305.581033 503 504 596 375 349 346
7.311588 1329704305.604319 499 505 597 383 352 350
7.311588 1329704305.607003 499 506 595 382 354 353
7.359131 1329704305.614100 508 505 595 389 358 353
7.359131 1329704305.633354 496 508 597 397 364 360
7.395300 1329704305.639182 497 503 599 409 385 366
7.395300 1329704305.647639 501 505 597 411 389 371
7.437068 1329704305.655833 500 505 600 404 387 370
7.437068 1329704305.673212 504 504 600 392 387 366
7.470099 1329704305.680744 504 505 598 380 394 361
7.470099 1329704305.689190 499 512 597 367 413 356
7.512856 1329704305.697400 506 516 595 353 441 351
7.512856 1329704305.705755 506 525 595 332 452 345
7.553488 1329704305.714079 506 516 613 331 425 349
7.553488 1329704305.731443 508 514 623 354 381 363
7.595839 1329704305.742604 518 518 624 384 342 371
7.595839 1329704305.747572 517 524 619 402 325 366
7.636289 1329704305.755722 508 531 612 399 330 348
7.636289 1329704305.763844 506 533 609 381 352 329
7.670066 1329704305.772618 500 536 616 361 374 314
7.670066 1329704305.780879 496 538 623 353 379 306
7.711848 1329704305.789048 499 541 627 362 370 300
7.711848 1329704305.797485 502 544 625 374 360 288
7.760098 1329704305.805734 501 545 623 386 355 272
7.760098 1329704305.813840 503 542 622 391 356 256
7.795178 1329704305.822493 506 535 622 389 355 240
7.795178 1329704305.830733 506 531 625 378 347 230
7.836299 1329704305.839194 501 529 625 358 335 222
7.836299 1329704305.847456 506 524 625 339 323 212
7.881489 1329704305.855811 503 524 622 325 314 210
7.881489 1329704305.863861 499 523 620 315 315 209
7.911435 1329704305.872440 500 521 616 310 317 206
7.911435 1329704305.888668 499 518 612 307 316 206
7.953228 1329704305.890693 494 517 609 303 316 206
7.953228 1329704305.897474 490 516 604 298 315 210
7.995520 1329704305.905624 494 513 598 300 316 213
7.995520 1329704305.913822 495 508 595 307 315 217
8.036859 1329704305.922230 497 503 588 314 313 224
8.036859 1329704305.930863 497 501 580 315 316 233
8.070011 1329704305.938802 500 500 576 313 327 242
8.070011 1329704305.947225 497 499 574 312 338 250
8.112257 1329704305.955591 499 495 574 313 346 261
8.112257 1329704305.963675 503 490 572 321 351 270
8.153512 1329704305.972174 508 485 573 331 359 281
8.153512 1329704305.983947 513 478 576 347 370 297
8.194988 1329704306.014439 521 465 579 368 368 314
8.194988 1329704306.025855 531 456 579 378 362 332
8.236909 1329704306.030448 525 449 580 378 359 358
8.236909 1329704306.038862 524 442 583 378 366 392
8.270112 1329704306.047101 526 436 585 385 382 424
8.270112 1329704306.055637 525 432 588 387 401 461
8.311254 1329704306.064808 528 434 592 390 423 498
8.311254 1329704306.072178 537 437 596 391 441 529
8.353122 1329704306.080345 548 438 600 398 447 551
8.353122 1329704306.088730 547 442 603 412 449 575
8.394488 1329704306.097048 553 449 601 418 453 602
8.394488 1329704306.105998 563 458 598 435 462 619
8.435392 1329704306.116030 567 462 601 467 476 635
8.435392 1329704306.122176 563 468 608 482 500 652
8.476641 1329704306.130221 569 476 618 467 529 678
8.476641 1329704306.138639 584 483 627 457 530 698
8.510266 1329704306.146916 603 487 641 489 519 701
8.510266 1329704306.155497 609 496 656 516 518 701
8.563780 1329704306.163548 610 505 669 491 526 706
8.563780 1329704306.172034 623 508 676 459 505 694
8.592267 1329704306.180389 629 507 678 453 465 669
8.592267 1329704306.188670 621 511 679 443 442 654
8.634977 1329704306.197046 624 512 678 421 427 640
8.634977 1329704306.205611 621 506 674 420 404 620
8.675837 1329704306.213532 611 503 663 432 385 609
8.675837 1329704306.222090 612 505 647 421 379 604
8.717535 1329704306.230127 612 504 633 400 381 590
8.717535 1329704306.239011 601 502 626 388 391 579
8.751006 1329704306.246961 589 506 623 370 403 580
8.751006 1329704306.255284 584 512 621 337 405 583
8.792034 1329704306.263792 587 513 621 317 399 571
8.792034 1329704306.272150 577 517 617 322 387 554
8.833770 1329704306.280165 568 526 613 331 375 548
8.833770 1329704306.288792 565 534 610 328 362 536
8.882470 1329704306.297167 562 536 607 327 353 510
8.882470 1329704306.305298 553 537 602 337 340 479
8.917431 1329704306.313908 537 537 593 351 328 455
8.917431 1329704306.322125 532 537 585 363 322 439
8.950378 1329704306.330185 532 534 578 377 328 422
8.950378 1329704306.338916 524 534 575 386 337 406
8.992316 1329704306.346905 523 533 572 391 347 394
8.992316 1329704306.355222 521 531 571 384 358 379
9.034079 1329704306.363736 521 529 572 370 366 365
9.034079 1329704306.373549 521 526 573 354 373 355
9.075568 1329704306.379977 520 518 578 353 383 335
9.117394 1329704306.388797 517 517 579 367 388 329
9.153400 1329704306.397824 522 513 583 372 406 313
9.192052 1329704306.406078 523 511 593 378 418 305
9.233584 1329704306.413893 534 507 605 389 420 295
9.275705 1329704306.429106 537 501 620 396 417 277
9.310517 1329704306.431017 547 493 628 391 396 267
9.358362 1329704306.438719 547 488 630 366 374 253
9.401231 1329704306.447060 551 481 623 337 357 245
9.433181 1329704306.455215 541 478 617 316 360 245
9.460396 1329704306.463742 540 477 613 310 366 249
9.491712 1329704306.472060 541 476 612 311 372 258
9.533368 1329704306.499770 538 477 613 316 380 260
9.533368 1329704306.511930 537 477 615 330 377 259
9.575345 1329704306.533440 541 478 613 339 372 263
9.575345 1329704306.539016 536 479 612 341 373 268
9.616803 1329704306.546937 536 476 614 350 378 267
9.616803 1329704306.555486 533 473 616 370 375 266
9.649993 1329704306.563024 536 474 615 378 368 273
9.649993 1329704306.574777 535 477 613 376 364 287
9.696650 1329704306.580095 531 477 613 378 364 291
9.696650 1329704306.588155 532 477 611 383 363 287
9.735336 1329704306.596927 532 481 610 380 359 292
9.735336 1329704306.604773 533 482 608 374 358 299
9.775832 1329704306.613191 531 480 608 372 363 298
9.775832 1329704306.624308 526 479 608 370 365 297
9.817293 1329704306.655286 524 479 608 375 360 300
9.817293 1329704306.666944 526 479 606 372 360 307
9.852542 1329704306.672082 522 478 607 365 364 318
9.852542 1329704306.680061 523 478 608 364 365 326
9.891910 1329704306.688194 522 480 609 363 362 334
9.891910 1329704306.696778 522 484 609 356 358 345
9.931781 1329704306.705742 519 487 607 352 356 352
9.931781 1329704306.713277 516 489 605 353 355 353
9.977905 1329704306.722096 516 491 603 354 356 350
9.977905 1329704306.730153 513 493 602 355 356 348
10.017324 1329704306.738282 511 496 600 358 357 354
10.017324 1329704306.747037 512 498 599 365 359 357
10.050773 1329704306.754705 510 500 598 373 361 356
10.050773 1329704306.763389 510 501 597 377 363 354
10.092100 1329704306.771921 511 501 597 382 367 353
10.092100 1329704306.780262 508 501 597 387 370 356
10.133817 1329704306.788208 509 500 598 390 372 357
10.133817 1329704306.796828 509 500 599 392 376 355
10.194120 1329704306.804847 510 500 601 390 381 355
10.194120 1329704306.819576 511 499 603 387 381 356
10.217711 1329704306.822333 512 499 605 383 380 362
10.217711 1329704306.830188 513 501 607 382 378 366
10.250616 1329704306.838533 513 502 607 382 376 367
10.250616 1329704306.847088 513 502 607 381 374 366
10.292088 1329704306.856900 514 503 607 380 374 367
10.292088 1329704306.869814 517 503 607 380 375 367
10.334156 1329704306.883744 515 503 607 381 373 369
10.334156 1329704306.907086 514 503 605 380 370 372
10.376114 1329704306.919380 514 504 603 378 368 375
10.376114 1329704306.934091 515 505 602 379 370 374
10.426401 1329704306.956020 513 506 602 377 375 373
10.426401 1329704306.963538 511 507 601 374 376 370
10.450805 1329704306.971771 511 509 599 367 375 370
10.450805 1329704306.980244 511 512 599 361 374 366
10.492137 1329704306.988363 508 517 599 356 376 360
10.492137 1329704306.996696 506 523 600 355 377 355
10.534177 1329704307.004933 502 537 598 349 375 345
10.534177 1329704307.013586 510 548 599 341 380 319
10.575902 1329704307.032220 507 556 601 342 389 287
10.575902 1329704307.038177 503 561 603 353 389 269
10.617387 1329704307.046789 506 566 606 368 389 255
10.617387 1329704307.055061 507 572 609 380 389 238
10.652880 1329704307.063265 514 572 616 393 397 216
10.652880 1329704307.071274 512 569 624 398 400 198
10.691814 1329704307.082759 512 564 632 389 395 182
10.691814 1329704307.088294 521 556 643 378 391 169
10.731403 1329704307.096580 516 546 653 381 374 165
10.731403 1329704307.105109 520 538 655 386 348 168
10.775143 1329704307.113066 529 531 648 382 329 162
10.775143 1329704307.121645 532 522 643 368 321 147
10.809227 1329704307.130023 529 519 638 346 314 142
10.809227 1329704307.138282 541 519 631 320 312 133
10.851641 1329704307.146427 541 513 628 319 308 124
10.851641 1329704307.159607 543 510 620 334 294 130
10.892354 1329704307.162922 547 506 607 342 291 136
10.892354 1329704307.171322 545 503 594 341 297 142
10.934198 1329704307.190230 544 502 588 334 312 153
10.934198 1329704307.196332 543 495 587 340 326 162
10.988276 1329704307.204847 544 486 581 348 317 178
10.988276 1329704307.213164 537 480 578 354 315 196
11.013144 1329704307.221172 529 471 574 362 319 227
11.013144 1329704307.230154 531 464 569 368 320 263
11.058573 1329704307.240226 536 456 566 363 329 295
11.058573 1329704307.246823 533 447 565 355 342 327
11.112300 1329704307.255294 529 439 566 346 354 366
11.112300 1329704307.263627 534 432 568 341 365 402
11.134935 1329704307.271994 537 427 569 338 381 438
11.134935 1329704307.280676 543 424 572 339 397 476
11.174986 1329704307.288866 549 425 576 353 412 516
11.174986 1329704307.297529 553 429 584 370 429 553
11.223403 1329704307.305844 564 430 591 389 453 590
11.223403 1329704307.313995 585 432 597 416 479 626
11.250073 1329704307.322279 597 435 607 443 505 653
11.250073 1329704307.330960 601 439 623 460 524 683
11.290864 1329704307.345421 617 442 638 481 532 716
11.290864 1329704307.348670 635 444 651 509 527 748
11.339534 1329704307.356452 657 452 661 525 522 771
11.339534 1329704307.364007 656 458 665 503 520 787
11.373696 1329704307.372331 669 459 666 472 512 804
11.373696 1329704307.380636 685 473 671 441 507 827
11.415939 1329704307.388926 699 488 675 406 486 824
11.415939 1329704307.397687 700 498 673 357 455 806
11.456683 1329704307.405783 691 507 667 302 431 787
11.456683 1329704307.413931 679 516 664 269 393 765
11.489904 1329704307.422045 675 519 657 261 360 734
11.489904 1329704307.430873 662 516 646 272 337 716
11.529939 1329704307.439258 659 512 631 300 328 713
11.529939 1329704307.447325 648 515 623 335 332 716
11.572789 1329704307.456700 640 521 616 360 333 706
11.572789 1329704307.464146 626 526 608 367 346 690
11.614404 1329704307.471986 618 526 606 360 354 671
11.614404 1329704307.480982 610 529 603 350 354 648
11.651137 1329704307.503747 598 532 599 337 350 626
11.651137 1329704307.507064 587 536 593 332 345 609
11.689667 1329704307.513951 582 539 587 335 351 592
11.689667 1329704307.522167 567 546 585 342 353 574
11.731445 1329704307.530867 558 551 584 355 356 546
11.731445 1329704307.539050 547 554 582 368 359 515
11.773171 1329704307.547166 541 554 581 378 361 488
11.773171 1329704307.555580 537 556 580 378 364 465
11.814669 1329704307.563927 531 555 582 377 361 444
11.814669 1329704307.572078 533 552 582 368 356 420
11.854574 1329704307.580387 533 549 580 359 358 404
11.854574 1329704307.588781 534 547 578 356 361 387
11.906392 1329704307.598870 531 543 580 354 372 371
11.906392 1329704307.605365 527 541 582 355 377 361
11.953317 1329704307.613571 523 542 581 362 377 355
11.953317 1329704307.621938 526 539 581 365 380 345
11.972555 1329704307.630198 522 539 582 364 389 338
11.972555 1329704307.638329 523 540 585 362 398 332
12.011529 1329704307.646941 526 540 585 356 405 322
12.011529 1329704307.654807 526 538 587 351 416 310
12.058986 1329704307.663396 525 538 589 351 426 302
12.058986 1329704307.671779 529 538 592 352 432 297
12.110202 1329704307.680065 533 536 595 350 437 286
12.110202 1329704307.688368 531 534 599 352 441 276
12.130679 1329704307.702115 537 531 600 359 437 270
12.130679 1329704307.705221 537 528 602 364 432 263
12.172154 1329704307.713292 535 525 604 370 432 257
12.172154 1329704307.721892 541 522 605 379 425 251
12.214399 1329704307.729912 546 519 603 390 419 244
12.214399 1329704307.738524 541 516 605 399 414 238
12.256835 1329704307.747065 541 514 606 408 411 233
12.256835 1329704307.755134 551 510 608 415 405 226
12.290173 1329704307.763647 546 505 611 416 405 216
12.290173 1329704307.772392 544 502 614 411 404 212
12.330461 1329704307.780140 553 498 616 403 396 208
12.330461 1329704307.788680 554 496 618 392 389 205
12.372489 1329704307.801141 553 492 619 383 386 204
12.372489 1329704307.805186 555 488 620 381 381 198
12.414264 1329704307.813632 556 487 619 381 377 198
12.414264 1329704307.821878 555 483 621 384 377 201
12.455658 1329704307.829927 546 481 623 390 375 205
12.455658 1329704307.838650 547 481 623 392 367 212
12.505033 1329704307.854827 551 479 620 390 360 219
12.505033 1329704307.862734 540 481 620 382 359 228
12.531170 1329704307.870783 533 478 620 378 359 228
12.531170 1329704307.879362 527 478 620 376 354 230
12.572507 1329704307.889514 531 477 617 374 352 238
12.572507 1329704307.895935 527 477 615 368 357 247
12.615429 1329704307.907757 519 478 617 366 360 254
12.615429 1329704307.912417 517 480 615 362 359 260
12.655754 1329704307.920878 521 482 611 350 362 267
12.655754 1329704307.929469 514 481 609 335 370 275
12.689645 1329704307.937572 513 480 609 329 378 280
12.689645 1329704307.945958 512 482 609 330 377 291
12.731046 1329704307.954047 515 483 607 331 376 307
12.731046 1329704307.962391 509 485 606 337 383 317
12.780851 1329704307.970543 507 487 609 350 383 319
12.780851 1329704307.979043 506 489 610 364 375 325
12.810545 1329704307.986759 512 490 607 370 364 332
12.810545 1329704307.995448 508 491 607 376 366 339
12.870961 1329704308.003521 505 492 608 383 371 343
12.870961 1329704308.015430 503 493 608 388 369 345
12.893616 1329704308.019860 504 493 608 390 363 351
12.893616 1329704308.028606 504 495 607 391 362 360
12.941357 1329704308.036472 502 497 607 388 362 366
12.941357 1329704308.045210 502 500 605 377 364 367
12.972711 1329704308.054785 503 502 602 364 365 368
12.972711 1329704308.061828 503 503 603 355 371 366
13.014794 1329704308.069796 497 505 605 349 372 365
13.014794 1329704308.078606 497 506 604 349 367 361
13.051225 1329704308.086528 501 505 601 355 362 360
13.051225 1329704308.095054 501 504 601 367 365 362
13.104037 1329704308.103356 501 503 604 385 371 364
13.104037 1329704308.111732 500 502 606 399 368 365
13.131064 1329704308.119863 501 501 605 407 362 368
13.131064 1329704308.128295 504 502 604 409 354 373
13.173397 1329704308.139311 505 503 601 414 349 376
13.173397 1329704308.144915 505 503 601 417 350 379
13.214404 1329704308.155470 502 504 602 412 353 380
13.214404 1329704308.161446 500 505 602 398 357 380
13.255983 1329704308.171272 500 504 601 377 362 376
13.255983 1329704308.178074 499 504 602 361 366 379
13.297510 1329704308.186330 499 505 602 352 367 383
13.297510 1329704308.194855 498 508 601 349 366 385
13.330449 1329704308.203102 499 509 599 352 366 384
13.330449 1329704308.211506 498 510 599 356 370 384
13.372688 1329704308.219577 499 511 601 367 373 385
13.372688 1329704308.228030 499 512 601 376 372 385
13.414078 1329704308.236088 499 512 601 382 370 382
13.414078 1329704308.244739 501 512 600 385 369 382
13.466731 1329704308.257707 500 513 600 389 371 381
13.466731 1329704308.271718 501 513 600 390 371 380
13.497273 1329704308.278040 500 513 599 383 374 379
13.497273 1329704308.286421 499 514 599 380 376 377
13.544140 1329704308.294520 499 514 598 378 375 377
13.544140 1329704308.303112 498 511 600 371 378 377
13.572127 1329704308.311504 498 509 602 361 382 377
13.572127 1329704308.328334 497 508 602 357 384 377
13.613792 1329704308.336206 497 507 602 359 382 379
13.613792 1329704308.344925 499 507 602 366 377 383
13.655252 1329704308.352684 500 510 601 381 373 386
13.655252 1329704308.361400 502 512 601 396 371 382
13.697035 1329704308.369645 503 515 599 407 370 379
13.697035 1329704308.383656 506 516 598 412 373 368
13.730471 1329704308.405890 506 516 598 410 378 358
13.730471 1329704308.416996 505 516 597 407 382 350
13.779584 1329704308.419248 504 518 597 395 387 340
13.779584 1329704308.427965 501 520 597 378 396 326
13.813221 1329704308.443899 499 520 597 366 401 314
13.813221 1329704308.445791 493 525 596 359 403 306
13.855434 1329704308.461590 502 525 597 352 410 295
13.855434 1329704308.474826 492 531 599 351 410 291
13.890218 1329704308.477537 493 542 598 350 404 288
13.890218 1329704308.486210 496 553 593 340 400 273
13.933031 1329704308.494705 516 551 593 332 415 249
13.933031 1329704308.502775 502 554 599 338 424 242
13.971350 1329704308.511067 496 558 604 350 416 242
13.971350 1329704308.520423 506 557 607 367 410 234
14.015907 1329704308.527628 504 557 610 382 405 229
14.015907 1329704308.535752 504 557 616 384 401 222
14.052795 1329704308.544559 510 554 624 379 398 213
14.052795 1329704308.552535 505 553 632 381 395 210
14.098867 1329704308.560794 512 548 641 383 386 203
14.098867 1329704308.569476 511 545 649 373 374 196
14.130353 1329704308.577677 514 545 654 354 361 191
14.130353 1329704308.585896 524 543 654 333 344 183
14.171894 1329704308.594256 528 542 652 322 330 178
14.171894 1329704308.602780 533 542 648 313 321 171
14.214000 1329704308.610869 538 538 646 316 317 162
14.214000 1329704308.619373 537 534 642 332 309 157
14.255831 1329704308.627738 535 531 634 351 299 157
14.255831 1329704308.636218 533 525 624 359 292 156
14.289426 1329704308.644495 524 523 616 358 293 156
14.289426 1329704308.652678 525 521 609 349 298 154
14.331062 1329704308.661131 531 513 605 341 309 150
14.331062 1329704308.669593 529 506 600 345 310 156
14.372738 1329704308.677836 529 502 591 348 304 167
14.372738 1329704308.686013 534 495 581 335 305 175
14.413788 1329704308.694590 534 485 573 325 316 182
14.413788 1329704308.702692 535 472 570 320 328 195
14.455685 1329704308.710915 527 457 568 320 333 216
14.455685 1329704308.719474 522 443 566 331 333 247
14.497494 1329704308.732336 522 437 562 351 338 291
14.497494 1329704308.735993 524 432 556 364 345 325
14.534027 1329704308.744562 535 436 556 367 365 349
14.534027 1329704308.752791 526 431 556 362 387 377
14.571847 1329704308.761027 522 429 560 356 399 410
14.571847 1329704308.769578 528 429 564 346 414 445
14.613876 1329704308.778561 532 428 570 347 434 479
14.613876 1329704308.785805 540 429 578 363 452 513
14.649746 1329704308.794565 548 430 586 385 468 547
14.649746 1329704308.802676 554 434 593 411 482 581
14.693221 1329704308.810855 565 440 600 437 495 612
14.693221 1329704308.819385 579 447 607 457 506 638
14.729957 1329704308.827643 590 452 615 463 516 649
14.729957 1329704308.835756 592 458 623 456 531 664
14.771116 1329704308.844444 602 464 628 441 538 683
14.771116 1329704308.852711 608 470 633 432 538 701
14.813668 1329704308.860859 616 478 640 418 542 721
14.813668 1329704308.869376 632 481 649 411 543 736
14.854913 1329704308.877470 651 484 658 423 527 740
14.854913 1329704308.890473 666 487 665 449 492 731
14.896515 1329704308.894425 668 491 666 451 472 716
14.896515 1329704308.902547 674 493 669 420 469 706
14.929707 1329704308.910759 683 490 673 387 459 693
14.929707 1329704308.919299 678 488 680 379 443 686
14.969850 1329704308.935878 676 487 682 376 422 681
14.969850 1329704308.943997 671 488 678 369 396 673
15.012258 1329704308.952953 662 488 673 354 374 661
15.012258 1329704308.960933 652 491 663 330 357 651
15.052951 1329704308.969060 640 499 652 302 344 646
15.052951 1329704308.978279 627 505 642 278 332 631
15.089741 1329704308.993235 617 506 632 266 320 615
15.089741 1329704309.006737 598 510 623 267 312 606
15.134648 1329704309.011052 586 515 615 282 300 596
15.134648 1329704309.019131 570 518 606 308 284 583
15.169776 1329704309.027842 561 520 596 345 270 574
15.169776 1329704309.035799 557 525 588 381 269 573
15.213640 1329704309.044127 550 536 582 410 273 571
15.213640 1329704309.052454 540 545 579 421 280 558
15.252889 1329704309.060874 530 552 575 416 289 537
15.252889 1329704309.069099 526 556 573 414 301 514
15.293179 1329704309.077635 519 559 573 405 312 489
15.293179 1329704309.086001 513 561 571 388 322 465
15.336141 1329704309.093988 510 561 570 373 329 444
15.336141 1329704309.103838 509 560 568 364 335 425
15.377935 1329704309.110666 507 560 565 355 343 407
15.377935 1329704309.119241 504 557 563 349 352 391
15.411148 1329704309.127504 501 555 562 349 361 379
15.411148 1329704309.135836 501 552 561 354 370 366
15.459507 1329704309.144190 499 548 561 359 383 354
15.459507 1329704309.172624 496 544 563 365 392 345
15.494201 1329704309.184444 493 542 565 371 400 337
15.494201 1329704309.198135 498 540 567 377 405 330
15.535684 1329704309.203007 499 536 569 378 414 318
15.535684 1329704309.211775 497 533 572 379 421 309
15.577562 1329704309.218936 500 531 574 378 426 303
15.577562 1329704309.228182 509 529 576 373 430 295
15.611199 1329704309.236614 515 526 579 362 439 284
15.611199 1329704309.244551 511 522 583 356 450 271
15.652782 1329704309.252519 509 519 588 355 456 263
15.652782 1329704309.260979 521 516 591 352 454 260
15.694124 1329704309.268988 523 514 595 346 456 255
15.694124 1329704309.277570 522 510 601 348 464 244
15.735470 1329704309.286071 521 506 606 353 466 236
15.735470 1329704309.294366 533 502 610 352 466 232
15.770167 1329704309.302575 535 499 616 342 471 233
15.770167 1329704309.311342 533 494 621 337 473 231
15.810909 1329704309.319274 533 491 627 341 467 231
15.810909 1329704309.328013 543 492 630 339 457 238
15.852380 1329704309.336097 546 496 633 329 447 243
15.852380 1329704309.344781 546 496 633 330 442 239
15.894065 1329704309.352725 543 497 634 337 440 233
15.894065 1329704309.361604 550 499 632 342 434 232
15.936558 1329704309.369257 553 503 631 338 425 234
15.936558 1329704309.377959 551 500 632 335 427 220
15.969376 1329704309.386293 546 495 634 347 425 209
15.969376 1329704309.394633 549 492 633 362 416 215
16.011384 1329704309.402739 553 490 634 369 405 225
16.011384 1329704309.411509 548 489 633 377 401 227
16.052516 1329704309.419309 547 485 633 382 399 224
16.052516 1329704309.427805 545 485 632 382 391 230
16.101357 1329704309.436104 546 484 629 375 382 241
16.101357 1329704309.444442 543 485 628 367 382 254
16.136193 1329704309.452571 542 484 628 367 379 260
16.136193 1329704309.461601 538 485 626 369 373 272
16.170024 1329704309.469314 538 486 624 371 368 288
16.170024 1329704309.485205 535 488 624 374 371 302
16.211589 1329704309.487976 535 493 624 381 364 310
16.211589 1329704309.494610 534 496 621 385 355 314
16.252991 1329704309.502726 533 498 616 385 349 318
16.252991 1329704309.511386 530 499 613 384 351 324
16.294531 1329704309.519564 529 499 610 389 351 324
16.294531 1329704309.529816 526 499 607 395 347 325
16.343314 1329704309.544442 523 498 603 401 343 329
16.343314 1329704309.565426 521 498 599 406 341 335
16.369732 1329704309.569386 519 498 596 408 343 341
16.369732 1329704309.577874 519 498 595 406 348 342
16.411265 1329704309.586203 516 497 595 402 352 344
16.411265 1329704309.594579 515 497 597 397 355 351
16.452562 1329704309.602764 515 498 598 395 357 356
16.452562 1329704309.611126 515 500 598 396 355 362
16.494410 1329704309.619279 514 502 597 398 356 366
16.494410 1329704309.627875 514 503 597 397 358 369
16.536109 1329704309.636387 513 505 598 395 362 370
16.536109 1329704309.644553 512 506 599 389 365 369
16.569417 1329704309.652838 514 506 601 383 365 367
16.569417 1329704309.661389 513 506 602 376 366 368
16.617122 1329704309.669538 512 507 602 372 363 368
16.617122 1329704309.677804 511 509 602 372 363 370
16.652601 1329704309.686469 510 509 601 374 365 370
16.652601 1329704309.694827 508 509 600 376 367 371
16.694223 1329704309.715936 508 509 601 377 367 370
16.694223 1329704309.733261 509 509 601 379 369 371
16.735400 1329704309.756581 509 509 600 380 369 368
16.735400 1329704309.780867 508 508 601 380 372 372
16.777584 1329704309.795806 507 509 603 379 375 373
16.777584 1329704309.810993 508 510 603 376 376 373
16.810728 1329704309.826212 509 511 603 374 376 372
16.810728 1329704309.858608 509 511 603 372 376 370
16.852111 1329704309.871129 510 511 604 372 376 368
16.852111 1329704309.878304 509 512 605 370 374 368
16.894339 1329704309.886619 509 512 604 369 372 365
16.894339 1329704309.894884 509 512 603 369 373 362
16.935506 1329704309.902812 507 512 602 368 376 360
16.935506 1329704309.911954 507 510 602 367 377 359
16.986962 1329704309.919702 507 509 602 370 376 361
16.986962 1329704309.928069 506 509 601 372 378 363
17.010975 1329704309.936588 506 507 600 372 380 363
17.010975 1329704309.945144 507 506 601 369 381 364
17.052529 1329704309.952710 506 505 600 368 378 368
17.052529 1329704309.961514 508 503 600 367 381 370
17.093490 1329704309.969492 510 502 600 367 384 373
17.093490 1329704309.987323 510 503 602 368 386 380
17.135546 1329704309.994829 512 503 601 371 386 380
17.135546 1329704310.003040 512 502 601 374 387 382
17.177237 1329704310.011310 511 502 601 379 388 383
17.177237 1329704310.019749 507 505 600 382 392 386
17.214056 1329704310.027832 507 509 600 383 393 384
17.214056 1329704310.041616 503 516 599 381 394 381
17.252003 1329704310.045208 496 527 598 376 393 378
17.252003 1329704310.052926 493 540 599 369 395 368
17.293799 1329704310.060907 496 554 603 366 400 350
17.293799 1329704310.069705 496 569 609 360 395 326
17.335823 1329704310.077710 508 575 613 353 392 295
17.335823 1329704310.095300 510 575 618 357 395 272
17.377579 1329704310.103245 516 572 624 365 395 261
17.377579 1329704310.111290 514 572 631 361 386 249
17.421448 1329704310.119528 519 571 635 349 376 234
17.421448 1329704310.128055 525 568 636 328 368 213
17.452652 1329704310.135832 528 564 638 312 364 193
17.452652 1329704310.149780 525 557 641 310 352 181
17.494010 1329704310.153050 527 555 640 313 337 174
17.494010 1329704310.161208 535 551 636 314 328 163
17.535186 1329704310.169476 536 542 631 321 331 153
17.535186 1329704310.177713 531 533 625 331 323 156
17.575030 1329704310.186264 527 530 615 338 319 158
17.575030 1329704310.194741 531 524 607 332 323 158
17.610787 1329704310.205357 531 512 603 332 331 163
17.610787 1329704310.211315 528 498 597 346 329 180
17.652772 1329704310.219512 528 491 588 352 331 204
17.652772 1329704310.227427 529 491 578 337 336 226
17.694201 1329704310.236293 534 488 575 307 354 235
17.694201 1329704310.244638 539 482 578 287 371 246
17.731334 1329704310.259520 542 470 583 292 373 257
17.731334 1329704310.263032 542 455 587 320 364 280
17.769596 1329704310.269611 538 447 590 350 358 315
17.769596 1329704310.277730 538 436 590 374 355 356
17.811081 1329704310.286137 537 431 590 395 360 405
17.811081 1329704310.294653 541 431 589 403 373 451
17.852247 1329704310.302922 552 433 589 398 389 484
17.852247 1329704310.311288 564 435 595 390 406 513
17.893760 1329704310.319450 563 435 606 393 414 542
17.893760 1329704310.327411 568 438 613 407 413 578
17.943139 1329704310.335781 579 445 615 422 407 615
17.943139 1329704310.344416 593 452 617 438 402 647
17.979294 1329704310.357494 601 464 618 444 406 674
17.979294 1329704310.380979 605 477 621 433 417 698
18.009606 1329704310.385617 613 487 622 420 421 721
18.009606 1329704310.393619 627 494 623 427 416 742
18.050908 1329704310.402278 643 498 632 471 416 755
18.050908 1329704310.410991 645 511 642 508 435 773
18.101232 1329704310.419428 663 525 658 499 476 785
18.101232 1329704310.427718 677 534 678 481 489 774
18.133845 1329704310.435748 686 541 701 481 474 749
18.133845 1329704310.444104 687 545 717 482 444 719
18.174853 1329704310.452643 678 546 720 459 406 699
18.174853 1329704310.461149 669 543 712 452 364 679
18.216537 1329704310.473981 654 539 701 463 335 663
18.216537 1329704310.477795 641 534 685 467 320 653
18.250751 1329704310.486456 630 535 671 458 314 646
18.250751 1329704310.494927 618 535 661 439 307 623
18.291894 1329704310.502762 602 531 649 424 293 597
18.291894 1329704310.511310 587 528 633 418 277 583
18.334299 1329704310.522928 580 528 616 415 271 577
18.334299 1329704310.528415 569 534 603 405 274 565
18.374417 1329704310.536263 556 538 592 388 280 543
18.374417 1329704310.544401 542 541 584 374 288 521
18.416166 1329704310.552872 535 540 577 367 298 499
18.416166 1329704310.561195 528 541 571 362 307 480
18.449749 1329704310.569501 516 545 565 359 314 460
18.449749 1329704310.578004 508 546 559 358 317 438
18.491523 1329704310.586129 502 545 552 357 322 415
18.491523 1329704310.594644 498 544 546 356 332 395
18.532796 1329704310.602829 497 543 543 356 343 378
18.532796 1329704310.611724 497 541 541 357 361 363
18.574434 1329704310.633571 495 538 540 359 380 347
18.574434 1329704310.637353 493 534 541 362 397 332
18.609885 1329704310.644372 494 531 543 365 417 319
18.609885 1329704310.653050 502 526 550 364 438 304
18.670758 1329704310.660997 509 519 556 362 455 290
18.670758 1329704310.669837 505 516 564 361 466 282
18.691223 1329704310.678185 516 513 571 361 470 279
18.691223 1329704310.686412 522 510 579 357 471 272
18.729720 1329704310.694393 523 509 589 351 467 261
18.729720 1329704310.703312 532 508 596 339 461 254
18.774648 1329704310.711283 539 508 601 329 457 243
18.774648 1329704310.719782 543 507 606 320 459 232
18.816688 1329704310.728887 546 503 611 311 466 222
18.816688 1329704310.736367 545 502 617 310 472 216
18.849818 1329704310.744394 550 500 622 317 472 215
18.849818 1329704310.753247 558 495 628 322 473 213
18.890894 1329704310.760992 560 493 634 325 472 214
18.890894 1329704310.769648 560 491 641 328 465 215
18.947076 1329704310.786338 563 487 646 327 453 213
18.947076 1329704310.810741 563 486 650 325 441 214
18.974536 1329704310.822845 563 486 653 324 424 220
18.974536 1329704310.829263 564 487 654 325 408 224
19.016718 1329704310.835868 565 487 652 327 399 222
19.016718 1329704310.844090 564 490 649 335 385 223
19.049292 1329704310.852624 565 491 643 341 376 230
19.049292 1329704310.860553 557 489 641 348 377 227
19.096534 1329704310.868828 555 486 641 358 372 227
19.096534 1329704310.876960 556 486 637 368 361 232
19.133218 1329704310.885459 558 487 632 370 352 245
19.133218 1329704310.893975 554 488 628 367 352 257
19.174867 1329704310.902285 550 488 624 367 352 258
19.174867 1329704310.910064 545 490 620 366 346 257
19.208879 1329704310.924103 545 492 613 358 342 264
19.208879 1329704310.926686 543 492 609 346 344 274
19.258350 1329704310.934811 542 493 607 344 351 276
19.258350 1329704310.943165 539 494 605 351 353 277
19.295862 1329704310.951647 536 495 601 360 350 284
19.295862 1329704310.959673 533 495 597 366 346 297
19.340324 1329704310.968109 531 494 596 374 352 308
19.340324 1329704310.976156 528 494 595 385 355 315
19.374939 1329704310.984569 524 494 593 399 357 319
19.374939 1329704310.992974 522 495 592 404 358 326
19.417408 1329704311.001652 521 496 594 400 367 337
19.417408 1329704311.009763 524 496 596 398 371 338
19.449691 1329704311.017756 521 496 598 400 370 339
19.449691 1329704311.026295 521 496 599 400 369 347
19.499063 1329704311.040569 518 498 598 396 368 359
19.499063 1329704311.063267 519 501 598 391 366 366
19.533815 1329704311.074906 517 503 597 389 368 366
19.533815 1329704311.078802 518 503 596 390 369 360
19.575314 1329704311.083557 514 503 596 387 373 360
19.575314 1329704311.091834 513 504 596 384 374 365
19.616740 1329704311.100518 514 505 597 381 376 370
19.616740 1329704311.108842 515 505 598 381 380 373
19.657382 1329704311.117042 514 507 599 382 382 379
19.657382 1329704311.125758 516 509 601 383 387 382
19.691894 1329704311.134421 518 510 604 381 391 382
19.691894 1329704311.142082 516 510 605 376 392 384
19.733857 1329704311.150723 518 513 608 375 390 389
19.733857 1329704311.158950 520 515 610 376 386 388
19.778863 1329704311.167079 519 517 611 380 379 384
19.778863 1329704311.175463 517 519 611 380 377 382
19.810924 1329704311.183495 517 519 610 380 377 379
19.810924 1329704311.191866 519 518 610 383 378 373
19.852065 1329704311.200518 517 516 610 392 375 372
19.852065 1329704311.208594 517 515 608 395 372 373
19.891067 1329704311.217034 519 513 606 396 371 373
19.891067 1329704311.225361 520 512 604 397 370 375
19.932441 1329704311.233626 519 511 601 397 368 375
19.932441 1329704311.241493 519 511 598 394 370 374
19.989932 1329704311.250495 518 512 596 385 373 375
19.989932 1329704311.259428 517 513 594 374 376 375
20.016156 1329704311.266737 515 514 591 365 380 374
20.016156 1329704311.275218 514 515 589 359 385 373
20.049502 1329704311.283563 512 519 588 353 389 375
20.049502 1329704311.291426 512 524 587 349 394 374
20.102161 1329704311.300351 511 533 589 352 400 370
20.102161 1329704311.310832 516 543 592 355 404 360
20.133017 1329704311.333257 516 556 596 354 404 341
20.133017 1329704311.335475 520 568 602 353 406 319
20.175403 1329704311.341658 526 576 610 356 412 293
20.175403 1329704311.349692 532 580 619 362 416 272
20.212223 1329704311.358884 531 583 625 364 405 256
20.212223 1329704311.366993 534 585 630 358 395 240
20.249579 1329704311.381953 540 582 632 348 386 225
20.249579 1329704311.384126 535 577 635 334 378 211
20.291274 1329704311.391618 536 572 638 313 371 200
20.291274 1329704311.399668 534 566 641 285 362 194
20.329663 1329704311.408643 531 559 643 260 355 185
20.329663 1329704311.416923 521 555 645 241 345 184
20.379448 1329704311.424992 526 554 643 230 332 187
20.379448 1329704311.440294 526 554 637 220 327 184
20.415482 1329704311.442103 527 552 633 213 326 179
20.415482 1329704311.449793 531 550 628 223 319 181
20.456070 1329704311.458428 532 549 618 244 309 182
20.456070 1329704311.466960 534 542 606 272 308 182
20.490666 1329704311.474790 524 533 596 303 312 186
20.490666 1329704311.483448 524 523 585 331 319 197
20.532774 1329704311.491674 523 517 578 356 335 208
20.532774 1329704311.499460 523 509 571 377 356 222
20.575412 1329704311.508509 516 501 570 392 362 238
20.575412 1329704311.516771 506 496 570 410 366 251
20.616224 1329704311.524861 514 487 566 427 367 277
20.616224 1329704311.533499 515 481 566 439 374 301
20.650039 1329704311.541525 519 476 564 442 385 320
20.650039 1329704311.549494 521 471 563 433 400 333
20.691543 1329704311.558512 520 464 566 415 413 347
20.691543 1329704311.566814 523 459 570 396 416 374
20.728906 1329704311.574990 529 453 577 391 423 399
20.728906 1329704311.583358 527 452 585 400 432 433
20.775561 1329704311.591487 529 451 590 411 437 469
20.775561 1329704311.599435 541 453 595 419 446 502
20.810758 1329704311.608365 547 452 603 433 457 534
20.810758 1329704311.616875 552 453 614 451 466 571
20.848817 1329704311.624741 569 457 619 466 476 599
20.848817 1329704311.633360 582 459 625 476 486 623
20.890349 1329704311.652905 588 463 632 486 494 652
20.890349 1329704311.666327 605 469 637 496 496 684
20.932391 1329704311.675119 622 478 643 503 503 702
20.932391 1329704311.683034 627 492 652 500 505 714
20.973586 1329704311.691482 639 505 660 480 505 725
20.973586 1329704311.701955 651 512 671 474 500 729
21.011101 1329704311.722092 663 516 689 510 493 731
21.011101 1329704311.724452 676 521 706 530 485 730
21.058359 1329704311.733050 676 522 713 502 461 716
21.058359 1329704311.741388 670 514 713 462 428 701
21.089162 1329704311.749767 664 511 707 446 384 696
21.089162 1329704311.758301 652 517 694 429 354 683
21.130348 1329704311.766768 640 518 681 382 340 661
21.130348 1329704311.775103 621 512 668 338 326 638
21.188715 1329704311.783142 613 503 655 325 309 631
21.188715 1329704311.791399 599 501 642 340 290 637
21.213589 1329704311.799749 586 505 626 360 276 633
21.213589 1329704311.810035 572 508 609 379 268 623
21.255798 1329704311.821401 559 518 594 391 273 616
21.255798 1329704311.832459 565 526 583 387 285 599
21.296190 1329704311.834734 555 535 575 374 298 576
21.296190 1329704311.841555 538 542 571 375 312 553
21.330411 1329704311.849570 531 546 569 391 323 528
21.330411 1329704311.857842 530 546 567 402 332 499
21.371679 1329704311.866341 524 546 566 405 337 477
21.371679 1329704311.874246 517 547 564 411 344 461
21.413311 1329704311.900694 515 549 562 408 350 444
21.413311 1329704311.915107 509 553 560 389 361 420
21.455049 1329704311.917147 503 555 558 364 364 390
21.455049 1329704311.928351 503 553 555 344 366 361
21.497011 1329704311.932723 504 548 552 326 374 341
21.497011 1329704311.941146 504 543 550 318 392 324
21.530156 1329704311.959902 500 538 552 327 412 312
21.530156 1329704311.966458 499 533 555 346 430 299
21.571463 1329704311.974666 501 528 559 364 445 288
21.571463 1329704311.983035 509 523 566 377 458 277
21.624438 1329704311.991174 510 520 572 388 466 269
21.624438 1329704311.999449 519 516 580 387 472 261
21.654987 1329704312.008002 530 511 590 374 478 245
21.654987 1329704312.016487 530 509 600 355 477 231
21.697023 1329704312.024762 537 508 608 328 476 218
21.697023 1329704312.032899 555 503 616 297 475 207
21.729826 1329704312.041251 556 499 621 274 475 205
21.729826 1329704312.049606 555 498 627 276 478 213
21.771349 1329704312.058108 564 498 632 297 477 214
21.771349 1329704312.066518 571 497 636 324 471 209
21.813357 1329704312.074773 561 496 639 350 459 209
21.813357 1329704312.082908 562 492 642 374 445 208
21.855015 1329704312.091122 564 486 645 392 431 203
21.855015 1329704312.099365 565 481 646 403 415 203
21.896892 1329704312.107921 565 479 646 399 398 208
21.896892 1329704312.116262 559 478 644 384 386 210
21.930638 1329704312.124441 561 474 642 369 377 200
21.930638 1329704312.132896 557 471 640 356 370 199
21.971743 1329704312.141222 555 465 638 344 369 203
21.971743 1329704312.149470 553 459 636 344 366 211
22.015348 1329704312.158226 550 458 635 351 363 222
22.015348 1329704312.166594 551 461 632 351 355 241
22.055271 1329704312.174764 550 461 629 343 351 255
22.055271 1329704312.183195 549 460 627 344 354 259
22.095683 1329704312.196111 545 460 626 353 348 264
22.095683 1329704312.199964 541 465 621 363 337 279
22.130620 1329704312.216176 541 474 614 358 330 300
22.130620 1329704312.228538 542 481 608 351 334 311
22.188119 1329704312.234917 540 485 606 346 345 310
22.188119 1329704312.241602 534 489 604 343 348 306
22.215061 1329704312.250127 532 493 600 339 345 310
22.215061 1329704312.258251 531 494 595 341 341 317
22.259650 1329704312.266624 526 493 592 350 345 322
22.259650 1329704312.275257 521 493 590 366 353 325
22.297041 1329704312.283249 518 494 588 378 358 330
22.297041 1329704312.291451 517 494 589 386 363 341
22.338334 1329704312.300000 514 496 590 392 365 355
22.338334 1329704312.308056 515 498 592 393 367 364
22.372292 1329704312.316824 515 501 593 394 371 369
22.372292 1329704312.352031 516 502 596 390 376 371
22.414474 1329704312.359944 517 503 599 386 385 377
22.414474 1329704312.366447 517 505 604 389 386 381
22.455572 1329704312.374781 517 507 605 396 379 382
22.455572 1329704312.383269 517 507 605 393 374 379
22.496726 1329704312.391542 517 507 604 387 373 377
22.496726 1329704312.407846 516 507 604 384 372 377
22.530247 1329704312.431120 517 507 603 380 374 376
22.530247 1329704312.454646 517 506 603 375 378 375
22.571823 1329704312.477374 516 506 604 374 380 381
22.571823 1329704312.491504 518 507 604 375 380 386
22.613540 1329704312.500293 518 509 603 376 378 386
22.613540 1329704312.508679 518 510 603 375 378 384
22.654995 1329704312.516796 519 511 603 374 380 385
22.654995 1329704312.524808 519 512 604 376 379 387
22.696384 1329704312.533501 519 514 604 378 379 387
22.696384 1329704312.541591 519 516 603 377 377 384
22.744596 1329704312.550207 520 516 602 376 376 384
22.744596 1329704312.558682 519 517 602 378 378 383
22.791251 1329704312.566538 519 518 602 379 379 380
22.791251 1329704312.575053 519 518 601 380 379 380
22.814656 1329704312.583264 520 518 600 382 380 378
22.814656 1329704312.591596 518 519 598 383 381 376
22.861978 1329704312.600174 518 520 597 384 382 374
22.861978 1329704312.608652 518 521 595 382 384 372
22.899382 1329704312.616533 516 523 591 381 385 368
22.899382 1329704312.625104 515 526 589 377 389 364
22.929687 1329704312.633359 515 530 589 372 396 357
22.929687 1329704312.641774 512 536 591 363 403 351
22.973085 1329704312.650220 515 544 596 356 405 342
22.973085 1329704312.665722 515 555 600 343 404 330
23.013355 1329704312.668436 524 563 605 330 408 311
23.013355 1329704312.693606 522 569 614 327 413 295
23.055238 1329704312.700151 525 577 621 334 412 284
23.055238 1329704312.708622 525 588 626 347 406 266
23.096926 1329704312.717207 531 594 629 362 400 241
23.096926 1329704312.740309 539 594 633 378 399 214
23.129907 1329704312.743200 535 591 636 391 391 197
23.129907 1329704312.750010 540 587 637 401 378 179
23.172878 1329704312.758400 545 582 638 404 368 163
23.172878 1329704312.766882 549 574 639 403 359 147
23.212641 1329704312.775320 546 563 639 396 348 137
23.212641 1329704312.783940 544 553 638 381 336 133
23.255029 1329704312.791611 549 545 636 360 330 131
23.255029 1329704312.800281 545 539 634 334 328 127
23.297134 1329704312.808631 547 531 632 313 324 123
23.297134 1329704312.817113 551 521 627 301 318 125
23.330506 1329704312.825343 551 514 620 305 312 130
23.330506 1329704312.833645 553 514 611 317 306 141
23.379217 1329704312.850889 560 511 603 324 309 144
23.379217 1329704312.858421 558 502 598 333 317 146
23.414083 1329704312.866805 551 494 593 343 313 158
23.414083 1329704312.875520 550 483 584 354 307 179
23.455725 1329704312.883751 541 479 580 366 310 204
23.455725 1329704312.892051 535 474 575 366 313 235
23.497113 1329704312.902191 535 469 570 357 322 267
23.497113 1329704312.925921 534 460 567 346 328 294
23.542805 1329704312.933797 529 453 566 337 333 325
23.542805 1329704312.941430 529 450 564 338 335 360
23.581667 1329704312.950176 527 447 565 346 341 389
23.581667 1329704312.958833 530 447 569 354 350 422
23.613736 1329704312.967022 525 449 574 369 363 461
23.613736 1329704312.975649 526 450 579 388 379 499
23.655132 1329704312.983332 529 457 584 411 387 535
23.655132 1329704312.991653 547 464 584 433 397 562
23.697045 1329704312.999791 554 472 585 441 417 582
23.697045 1329704313.008612 559 478 588 440 439 599
23.729836 1329704313.016792 560 485 594 441 459 623
23.729836 1329704313.033590 568 491 601 439 481 647
23.771606 1329704313.042018 578 498 613 437 504 672
23.771606 1329704313.049891 596 504 629 446 515 692
23.813075 1329704313.058311 610 509 648 458 513 704
23.813075 1329704313.067008 618 518 665 464 509 716
23.854367 1329704313.075348 636 525 682 469 501 724
23.854367 1329704313.090818 644 523 703 516 470 733
23.908132 1329704313.103177 650 524 719 572 454 743
23.908132 1329704313.108626 660 528 731 569 448 737
23.931685 1329704313.116863 647 525 735 536 428 730
23.931685 1329704313.125027 648 509 731 528 391 720
23.969971 1329704313.133586 646 494 714 527 361 720
23.969971 1329704313.141877 633 485 694 514 344 718
24.010745 1329704313.152252 620 483 670 498 335 708
24.010745 1329704313.158089 615 487 649 478 335 700
24.053015 1329704313.166514 606 488 626 465 341 675
24.053015 1329704313.175495 590 488 611 439 353 661
24.094222 1329704313.183694 578 496 600 420 365 651
24.094222 1329704313.191318 566 506 591 402 372 639
24.135514 1329704313.207340 557 517 585 383 380 618
24.135514 1329704313.230926 549 526 583 367 384 589
24.169794 1329704313.242911 544 534 582 355 379 550
24.169794 1329704313.249900 534 537 581 345 370 510
24.210654 1329704313.257775 530 535 578 344 361 481
24.210654 1329704313.266057 523 536 575 352 354 464
24.252565 1329704313.274630 522 538 570 363 350 451
24.252565 1329704313.296941 526 538 567 375 350 431
24.293665 1329704313.300081 518 540 564 383 357 410
24.293665 1329704313.308628 518 540 561 384 370 388
24.335578 1329704313.316774 519 538 560 378 385 367
24.335578 1329704313.325273 515 535 560 373 397 352
24.377434 1329704313.333364 512 533 561 365 408 340
24.377434 1329704313.351108 510 533 563 353 417 326
24.411342 1329704313.358163 511 531 566 343 425 305
24.411342 1329704313.366968 506 528 569 336 433 287
24.454033 1329704313.375280 509 524 574 329 443 270
24.454033 1329704313.383337 516 520 579 322 452 252
24.493755 1329704313.391853 522 517 587 314 459 237
24.493755 1329704313.406882 531 515 595 301 468 224
24.535819 1329704313.410167 543 514 604 287 469 210
24.535819 1329704313.417007 552 513 613 275 463 198
24.586176 1329704313.425168 557 513 622 273 453 190
24.586176 1329704313.433653 563 513 628 287 441 185
24.610748 1329704313.442177 567 513 631 310 429 186
24.610748 1329704313.463753 569 510 632 336 422 183
24.651933 1329704313.487767 569 506 634 370 423 176
24.651933 1329704313.512634 560 500 636 399 422 167
24.694006 1329704313.525251 561 497 637 409 414 165
24.694006 1329704313.533024 562 494 639 406 402 176
24.736081 1329704313.541344 564 487 639 388 392 183
24.736081 1329704313.557948 556 480 641 369 391 184
24.769448 1329704313.573200 556 478 641 352 386 186
24.769448 1329704313.588624 556 479 640 334 375 196
24.810815 1329704313.611787 559 475 640 320 369 206
24.810815 1329704313.626870 557 472 638 316 367 212
24.852702 1329704313.633633 555 472 636 319 363 218
24.852702 1329704313.641827 553 477 633 319 356 231
24.894658 1329704313.651043 557 477 632 317 354 244
24.894658 1329704313.658545 558 475 631 322 353 245
24.936958 1329704313.666362 552 475 629 339 347 251
24.936958 1329704313.674607 550 475 625 349 339 265
24.970258 1329704313.683603 548 475 621 359 336 278
24.970258 1329704313.691572 545 474 618 372 334 286
25.014256 1329704313.707692 540 475 613 384 334 294
25.014256 1329704313.722910 537 477 608 387 333 306
25.060076 1329704313.725891 534 476 604 383 333 318
25.060076 1329704313.732819 532 475 599 384 336 326
25.099413 1329704313.741363 527 475 596 392 341 337
25.099413 1329704313.749582 523 478 592 398 345 348
25.136787 1329704313.764416 519 484 589 399 351 359
25.136787 1329704313.785902 520 487 587 401 355 366
25.170018 1329704313.790464 519 489 587 408 365 367
25.170018 1329704313.798479 518 492 588 410 370 366
25.211510 1329704313.807474 516 495 590 407 375 369
25.211510 1329704313.816108 514 497 592 400 377 372
25.253282 1329704313.823702 514 499 592 399 378 377
25.253282 1329704313.839019 515 501 593 393 382 380
25.295229 1329704313.843977 515 503 594 387 388 380
25.295229 1329704313.849252 514 504 596 379 390 382
25.336581 1329704313.857683 515 506 597 373 391 384
25.336581 1329704313.865265 517 506 598 371 393 386
25.380061 1329704313.873320 516 508 599 372 396 388
25.380061 1329704313.882455 515 510 598 375 395 390
25.411072 1329704313.890367 517 511 597 376 395 389
25.411072 1329704313.898972 516 512 597 377 400 389
25.453045 1329704313.906651 516 516 598 373 401 391
25.453045 1329704313.915387 516 519 600 371 401 386
25.494191 1329704313.922910 515 524 601 366 401 381
25.494191 1329704313.931798 513 529 605 360 401 376
25.536404 1329704313.939803 512 535 607 352 400 371
25.536404 1329704313.948551 511 542 610 347 397 359
25.577734 1329704313.956191 511 548 611 344 393 349
25.577734 1329704313.965227 510 554 610 337 390 338
25.624862 1329704313.972672 511 559 609 328 389 328
25.624862 1329704313.983049 516 563 609 321 391 314
25.662937 1329704313.989508 517 567 609 322 389 299
25.662937 1329704313.999780 518 570 610 322 391 284
25.694494 1329704314.006055 523 569 614 325 395 271
25.694494 1329704314.015647 523 569 617 338 390 263
25.736045 1329704314.029452 527 571 620 355 383 253
25.736045 1329704314.041453 532 572 624 367 383 238
25.777761 1329704314.047787 535 570 628 367 381 219
25.777761 1329704314.055657 540 568 636 356 380 204
25.810625 1329704314.064102 541 563 644 344 373 189
25.810625 1329704314.072365 542 557 650 332 360 181
25.863633 1329704314.086456 540 554 652 322 342 175
25.863633 1329704314.100372 543 550 651 315 328 171
25.894443 1329704314.106151 541 546 646 312 317 167
25.894443 1329704314.113920 540 543 638 313 309 164
25.943749 1329704314.122717 539 541 631 312 305 161
25.943749 1329704314.130671 533 534 624 318 300 166
25.969553 1329704314.142142 530 528 614 328 289 177
25.969553 1329704314.150599 529 527 602 332 282 186
26.011435 1329704314.155773 527 527 589 319 285 189
26.011435 1329704314.164023 527 520 582 303 298 189
26.053051 1329704314.172682 522 512 575 301 307 197
26.053051 1329704314.180966 520 506 569 309 315 210
26.094826 1329704314.188983 519 500 564 319 325 224
26.094826 1329704314.197844 513 494 559 331 332 243
26.140966 1329704314.206075 515 487 555 336 338 262
26.140966 1329704314.214158 510 479 554 338 346 285
26.169646 1329704314.222553 508 471 553 339 356 313
26.169646 1329704314.230881 509 462 556 346 369 345
26.210482 1329704314.239080 511 452 558 361 374 376
26.210482 1329704314.247660 508 448 561 384 378 414
26.252686 1329704314.255964 518 448 562 395 392 448
26.252686 1329704314.264269 526 446 566 396 416 474
26.296476 1329704314.272611 525 445 574 401 441 510
26.296476 1329704314.280732 533 447 581 411 455 551
26.336633 1329704314.289077 551 451 588 421 462 586
26.336633 1329704314.301809 565 454 600 439 477 618
26.368915 1329704314.305801 577 461 615 457 488 656
26.368915 1329704314.314152 597 471 628 474 491 684
26.412575 1329704314.322547 616 477 638 500 488 704
26.412575 1329704314.330594 627 486 649 524 497 724
26.451633 1329704314.341951 641 490 659 519 506 739
26.451633 1329704314.354078 659 495 667 505 506 754
26.489348 1329704314.358419 674 500 679 512 502 764
26.489348 1329704314.369704 694 507 685 513 490 756
26.535825 1329704314.383679 695 505 687 460 490 751
26.535825 1329704314.405890 717 497 688 382 481 760
26.575810 1329704314.417518 711 498 694 340 447 785
26.575810 1329704314.422489 713 509 697 374 399 788
26.608876 1329704314.452664 698 523 691 411 365 750
26.608876 1329704314.455353 677 517 680 421 348 702
26.650977 1329704314.463936 664 494 667 429 333 676
26.650977 1329704314.472021 646 481 657 453 323 688
26.691466 1329704314.480584 644 478 643 482 323 694
26.691466 1329704314.488984 632 482 631 502 335 688
26.733965 1329704314.499340 619 497 623 493 348 673
26.733965 1329704314.511061 624 508 616 456 356 634
26.774748 1329704314.524859 619 513 610 403 359 603
26.774748 1329704314.547053 616 518 604 351 365 588
26.813387 1329704314.558414 604 530 598 325 365 576
26.813387 1329704314.572607 594 541 591 319 364 555
26.850020 1329704314.580376 577 550 586 325 358 529
26.850020 1329704314.609604 571 556 580 332 350 499
26.891758 1329704314.621080 567 560 575 337 344 469
26.891758 1329704314.624839 556 562 570 339 338 441
26.933135 1329704314.630232 549 561 563 344 332 416
26.933135 1329704314.638850 539 560 557 351 328 393
26.974412 1329704314.647024 531 558 552 356 330 368
26.974412 1329704314.656435 525 555 547 357 337 343
27.016437 1329704314.663737 520 548 544 356 351 320
27.016437 1329704314.671679 517 540 541 356 369 301
27.049722 1329704314.680201 516 532 542 360 390 287
27.049722 1329704314.688902 513 524 545 364 416 276
27.091512 1329704314.696659 518 517 551 367 443 268
27.091512 1329704314.705337 523 512 559 369 470 264
27.133446 1329704314.713944 537 505 570 357 491 260
27.133446 1329704314.721827 547 497 585 334 503 253
27.175323 1329704314.730407 547 497 604 304 508 251
27.175323 1329704314.739808 557 502 617 276 509 250
27.216143 1329704314.748957 560 507 625 256 503 237
27.216143 1329704314.756268 562 508 631 254 501 220
27.249533 1329704314.765442 566 507 637 274 497 205
27.249533 1329704314.787551 584 504 639 306 488 199
27.291587 1329704314.789595 586 498 643 344 477 201
27.291587 1329704314.797203 584 492 648 387 470 202
27.336155 1329704314.805065 580 489 654 427 452 201
27.336155 1329704314.813933 586 486 654 448 424 198
27.374883 1329704314.822223 588 480 653 452 398 195
27.374883 1329704314.829890 580 471 652 449 382 186
27.416740 1329704314.838355 579 465 650 439 360 185
27.416740 1329704314.847161 584 464 644 416 337 195
27.450508 1329704314.856914 577 462 638 392 329 200
27.450508 1329704314.863836 568 458 636 378 327 200
27.491822 1329704314.871995 566 456 632 369 321 204
27.491822 1329704314.879773 563 454 626 360 318 218
27.533605 1329704314.888289 555 453 623 355 318 235
27.533605 1329704314.896860 547 455 620 354 316 248
27.575939 1329704314.905098 546 460 617 356 312 260
27.575939 1329704314.913630 544 464 612 353 307 272
27.620700 1329704314.922119 542 467 606 351 309 283
27.620700 1329704314.929808 541 470 604 354 313 291
27.650926 1329704314.938343 539 472 602 366 315 300
27.650926 1329704314.947220 534 477 599 382 314 312
27.692523 1329704314.955121 533 483 596 390 315 323
27.692523 1329704314.963644 532 488 593 393 320 330
27.734396 1329704314.972083 527 491 591 398 326 328
27.734396 1329704314.979819 523 492 590 402 331 328
27.775554 1329704315.004510 520 492 588 400 336 330
27.775554 1329704315.006845 519 493 589 399 342 339
27.812892 1329704315.013385 518 496 590 399 350 345
27.812892 1329704315.022120 516 497 589 398 355 350
27.851914 1329704315.030587 515 498 590 393 362 350
27.851914 1329704315.038660 514 499 591 385 368 350
27.898680 1329704315.047398 513 498 591 379 369 351
27.898680 1329704315.055513 513 497 592 375 372 354
27.933866 1329704315.063512 512 499 594 372 375 360
27.933866 1329704315.072089 514 501 596 371 376 362
27.975605 1329704315.080541 514 501 598 373 379 359
27.975605 1329704315.088526 513 500 599 373 383 359
28.011012 1329704315.097200 513 500 602 377 383 365
28.011012 1329704315.114931 511 501 604 381 383 368
28.050514 1329704315.121945 514 501 604 386 382 369
28.050514 1329704315.130309 513 500 605 385 382 373
28.092119 1329704315.138976 513 502 605 381 383 372
28.092119 1329704315.146928 514 502 606 378 382 371
28.134107 1329704315.155218 513 501 606 376 382 370
28.134107 1329704315.164112 513 501 606 372 382 373
28.175487 1329704315.172656 514 503 607 368 380 376
28.175487 1329704315.180385 514 503 607 371 376 375
28.213358 1329704315.189096 514 504 607 374 375 375
28.213358 1329704315.197125 514 505 606 376 376 376
28.263361 1329704315.205500 516 506 607 377 379 374
28.263361 1329704315.214024 515 506 607 378 380 375
28.313485 1329704315.222208 515 507 607 378 378 374
28.313485 1329704315.230590 516 507 607 377 375 373
28.333520 1329704315.239137 515 507 606 377 373 372
28.333520 1329704315.247725 516 506 605 375 376 371
28.375314 1329704315.255906 515 506 605 371 378 371
28.375314 1329704315.264248 515 506 605 372 376 371
28.416725 1329704315.280375 513 505 605 371 375 372
28.416725 1329704315.295313 515 505 605 372 374 373
28.449574 1329704315.310004 514 505 604 374 375 373
28.449574 1329704315.322760 514 505 603 375 375 373
28.491748 1329704315.346355 514 505 603 374 377 372
28.491748 1329704315.370453 513 505 603 373 378 372
28.533436 1329704315.393108 514 505 603 371 378 372
28.533436 1329704315.417118 515 504 604 371 380 372
28.577925 1329704315.440716 515 504 604 371 379 373
28.577925 1329704315.455324 515 504 605 372 380 376
28.617312 1329704315.458300 514 506 604 375 379 375
28.617312 1329704315.464191 515 506 603 375 379 375
28.649588 1329704315.472066 515 506 602 376 380 373
28.649588 1329704315.480888 515 506 601 375 381 372
28.691602 1329704315.488958 515 506 601 376 383 375
28.691602 1329704315.497634 515 506 600 376 384 377
28.733414 1329704315.505736 513 506 598 376 384 378
28.733414 1329704315.514243 513 506 595 376 385 380
28.774752 1329704315.521872 511 509 593 375 388 382
28.774752 1329704315.530864 511 511 592 372 393 382
28.816402 1329704315.539022 510 515 591 370 400 382
28.816402 1329704315.550743 510 523 591 363 405 382
28.849572 1329704315.555653 509 533 592 354 410 376
28.849572 1329704315.563960 514 544 596 346 415 366
28.891089 1329704315.571799 518 556 603 337 418 348
28.891089 1329704315.580793 518 570 609 327 419 325
28.933442 1329704315.588770 521 582 613 315 416 297
28.933442 1329704315.603570 531 586 619 309 416 269
28.974666 1329704315.617744 530 587 623 310 412 246
28.974666 1329704315.622347 532 589 626 316 402 231
29.025145 1329704315.630513 540 589 628 331 397 212
29.025145 1329704315.639053 541 585 630 351 396 193
29.049566 1329704315.647325 542 579 635 363 392 177
29.049566 1329704315.658225 545 572 638 371 382 167
29.091317 1329704315.663826 550 565 642 384 374 164
29.091317 1329704315.672916 549 557 648 396 363 160
29.132690 1329704315.680245 553 551 655 388 353 157
29.132690 1329704315.688957 558 543 662 357 343 152
29.174358 1329704315.697105 560 534 664 326 325 150
29.174358 1329704315.708438 555 529 661 306 298 155
29.216345 1329704315.713882 563 525 647 299 268 157
29.216345 1329704315.722364 564 519 626 299 248 156
29.250555 1329704315.730361 563 509 604 306 242 156
29.250555 1329704315.739004 558 501 583 315 251 159
29.291855 1329704315.746947 555 493 568 320 268 166
29.291855 1329704315.755462 541 485 556 331 288 178
29.333541 1329704315.763633 530 475 548 345 310 204
29.333541 1329704315.772132 523 469 544 358 334 238
29.376636 1329704315.780053 515 465 544 365 361 276
29.376636 1329704315.788882 513 459 544 367 379 311
29.409326 1329704315.796984 521 455 545 361 388 343
29.409326 1329704315.805263 527 452 548 346 404 365
29.449574 1329704315.813753 530 447 555 340 423 385
29.449574 1329704315.821997 531 439 565 361 437 413
29.491821 1329704315.829908 528 435 578 398 446 450
29.491821 1329704315.838758 535 436 587 428 456 490
29.533350 1329704315.846897 545 440 594 444 475 526
29.533350 1329704315.862956 559 443 600 441 493 556
29.574132 1329704315.866014 576 442 608 439 507 580
29.574132 1329704315.872128 587 439 615 454 515 609
29.610388 1329704315.879967 605 437 617 477 518 639
29.610388 1329704315.888836 619 439 621 494 524 665
29.652621 1329704315.896751 638 442 624 504 531 685
29.652621 1329704315.904852 657 447 629 501 537 700
29.698009 1329704315.913574 674 452 636 477 551 716
29.698009 1329704315.921936 694 460 646 426 565 738
29.736391 1329704315.929565 710 468 656 373 555 752
29.736391 1329704315.938618 730 471 665 358 524 758
29.772715 1329704315.946911 742 483 670 353 490 760
29.772715 1329704315.966245 751 494 675 321 469 757
29.809574 1329704315.971779 747 500 676 300 436 757
29.809574 1329704315.980253 743 504 671 314 404 760
29.856960 1329704315.988209 749 506 662 343 384 759
29.856960 1329704315.996821 731 518 655 362 371 752
29.890659 1329704316.004629 703 526 645 362 359 733
29.890659 1329704316.020244 691 521 639 353 353 703
29.930471 1329704316.043622 669 518 633 339 345 676
29.930471 1329704316.056087 650 513 626 332 328 656
29.974738 1329704316.063525 635 515 617 332 310 649
29.974738 1329704316.071649 622 529 604 329 300 648
30.013869 1329704316.079710 609 546 592 327 296 636
30.013869 1329704316.088469 582 560 584 330 302 611
30.055017 1329704316.106571 570 568 579 335 310 580
30.055017 1329704316.113303 556 572 577 344 319 537
30.091095 1329704316.121707 541 577 577 358 320 493
30.091095 1329704316.129746 534 577 574 369 316 457
30.129945 1329704316.137990 534 574 569 374 311 429
30.129945 1329704316.146847 530 569 564 376 309 404
30.171733 1329704316.154646 525 564 558 374 317 383
30.171733 1329704316.163226 526 554 552 365 329 362
30.213123 1329704316.171648 522 547 550 360 343 347
30.213123 1329704316.179997 517 540 548 363 360 336
30.255162 1329704316.187799 515 534 547 370 375 326
30.255162 1329704316.196567 510 529 546 374 389 319
30.293458 1329704316.204415 511 525 548 372 409 312
30.293458 1329704316.224791 511 523 550 368 429 306
30.329946 1329704316.229933 513 520 554 363 447 294
30.329946 1329704316.238163 511 518 559 358 461 281
30.371542 1329704316.248212 518 518 566 354 476 270
30.371542 1329704316.254541 532 518 573 347 486 255
30.414749 1329704316.263081 538 517 583 340 492 237
30.414749 1329704316.279110 539 517 593 330 497 220
30.455034 1329704316.290802 551 513 602 326 495 207
30.455034 1329704316.296585 562 507 610 331 490 194
30.496616 1329704316.304780 569 500 618 340 486 187
30.496616 1329704316.312713 578 496 623 350 481 187
30.529997 1329704316.321606 586 495 630 363 474 191
30.529997 1329704316.330077 582 492 635 382 463 189
30.574125 1329704316.344704 584 488 641 398 454 182
30.574125 1329704316.347775 590 486 645 405 440 180
30.613120 1329704316.354907 592 484 651 401 424 181
30.613120 1329704316.362892 590 483 655 389 405 179
30.651316 1329704316.371496 590 485 655 371 385 176
30.651316 1329704316.379908 591 484 654 350 365 172
30.697474 1329704316.389735 589 480 652 335 356 169
30.697474 1329704316.404674 587 477 649 327 348 171
30.730206 1329704316.419889 585 474 646 327 343 178
30.730206 1329704316.432482 576 470 643 333 344 190
30.771809 1329704316.456343 571 467 640 345 342 200
30.771809 1329704316.470888 562 465 637 359 336 215
30.813429 1329704316.474454 560 464 631 372 329 236
30.813429 1329704316.480590 555 466 625 375 327 255
30.855304 1329704316.488624 553 469 619 378 328 273
30.855304 1329704316.499725 550 470 615 381 332 283
30.897344 1329704316.515329 548 471 613 386 334 293
30.897344 1329704316.529981 542 475 612 390 330 309
30.931002 1329704316.552312 541 482 609 390 323 326
30.931002 1329704316.555042 541 485 605 391 321 329
30.972535 1329704316.563598 536 486 601 396 320 324
30.972535 1329704316.572723 530 486 597 396 324 325
31.014376 1329704316.582137 525 488 595 390 325 333
31.014376 1329704316.588246 520 491 592 386 326 348
31.055722 1329704316.596711 518 495 589 383 329 360
31.055722 1329704316.604537 517 500 587 386 335 366
31.096684 1329704316.613279 515 503 585 393 341 363
31.096684 1329704316.621551 511 505 584 396 347 361
31.130432 1329704316.629728 509 506 585 395 358 363
31.130432 1329704316.638002 510 507 586 400 365 365
31.172779 1329704316.646232 509 507 588 405 368 369
31.172779 1329704316.654716 507 508 588 406 369 375
31.213625 1329704316.662986 507 509 590 401 372 378
31.213625 1329704316.671483 510 510 592 396 378 380
31.254969 1329704316.692227 509 510 594 391 379 378
31.254969 1329704316.696444 509 510 596 381 384 378
31.304986 1329704316.705347 510 512 599 368 387 379
31.304986 1329704316.713456 512 512 601 364 385 378
31.330041 1329704316.721933 511 512 602 367 384 377
31.330041 1329704316.734376 513 511 603 368 387 377
31.371986 1329704316.747269 512 512 604 371 389 380
31.371986 1329704316.755221 514 512 606 377 390 377
31.413666 1329704316.763695 512 512 607 384 390 376
31.413666 1329704316.771924 512 512 608 389 387 375
31.455302 1329704316.780666 514 512 607 390 384 372
31.455302 1329704316.788814 515 510 608 389 382 369
31.501266 1329704316.797059 513 510 607 392 380 368
31.501266 1329704316.805250 514 508 607 388 380 367
31.530508 1329704316.813977 514 507 607 383 382 368
31.530508 1329704316.822073 514 506 607 377 382 369
31.571382 1329704316.830568 514 505 608 376 382 371
31.571382 1329704316.838856 513 505 607 375 378 371
31.613248 1329704316.847223 513 506 606 374 376 372
31.613248 1329704316.864549 513 505 605 373 375 373
31.655382 1329704316.872247 514 505 605 375 378 375
31.655382 1329704316.880496 513 504 605 375 380 375
31.702940 1329704316.888718 513 504 605 376 381 376
31.702940 1329704316.896801 513 504 604 378 380 379
31.730939 1329704316.904781 514 505 602 379 380 380
31.730939 1329704316.913269 514 505 602 381 381 380
31.771442 1329704316.921435 514 505 600 383 383 380
31.771442 1329704316.930090 513 504 598 385 385 383
31.813511 1329704316.938298 511 504 594 387 386 386
31.813511 1329704316.946593 509 503 590 390 388 390
31.855066 1329704316.955067 509 502 584 394 393 398
31.855066 1329704316.975414 510 503 580 395 403 408
31.896761 1329704316.980329 511 506 577 395 416 417
31.896761 1329704316.988456 515 509 576 398 429 423
31.933726 1329704316.996943 518 517 576 395 443 429
31.933726 1329704317.005614 524 526 583 387 457 426
31.971382 1329704317.013574 528 539 592 372 461 411
31.971382 1329704317.033551 530 552 601 356 459 389
32.013094 1329704317.038047 540 563 610 340 456 362
32.013094 1329704317.046672 543 573 619 331 450 334
32.054829 1329704317.054907 550 580 625 329 439 310
32.054829 1329704317.063582 553 586 627 330 430 283
32.090299 1329704317.071315 554 589 627 342 422 262
32.090299 1329704317.079687 561 590 629 358 420 236
32.129988 1329704317.087880 566 589 631 383 413 212
32.129988 1329704317.096562 574 585 634 405 402 190
32.171476 1329704317.104736 574 582 635 422 387 169
32.171476 1329704317.113336 585 578 636 427 374 145
32.213291 1329704317.121618 592 572 639 417 362 117
32.213291 1329704317.130140 599 565 642 394 350 94
32.254399 1329704317.149264 606 558 646 366 339 77
32.254399 1329704317.155127 613 551 650 342 331 64
32.291791 1329704317.163485 601 546 652 324 323 63
32.291791 1329704317.171700 600 543 650 314 312 67
32.331334 1329704317.179767 597 535 646 313 305 69
32.331334 1329704317.192265 581 529 638 320 292 79
32.377382 1329704317.196295 574 523 627 326 283 92
32.377382 1329704317.204807 572 514 615 329 282 104
32.413868 1329704317.213323 556 504 606 330 283 123
32.413868 1329704317.221739 548 499 596 331 284 143
32.455172 1329704317.229472 547 491 587 323 286 162
32.455172 1329704317.237846 536 482 579 314 288 186
32.489862 1329704317.246235 533 477 571 308 297 217
32.489862 1329704317.254543 536 476 563 307 312 243
32.529857 1329704317.263543 543 474 561 317 331 265
32.529857 1329704317.270753 537 470 562 342 342 288
32.573580 1329704317.279743 533 467 563 370 345 317
32.573580 1329704317.286868 536 464 563 396 351 344
32.612831 1329704317.302771 537 461 563 413 362 370
32.612831 1329704317.305874 538 461 564 421 375 395
32.654969 1329704317.313085 538 458 565 418 390 416
32.654969 1329704317.320926 535 456 569 412 407 438
32.696759 1329704317.329583 535 454 574 405 424 474
32.696759 1329704317.337160 542 455 581 404 436 511
32.745758 1329704317.345964 552 458 586 411 438 546
32.745758 1329704317.354441 567 462 589 419 438 579
32.769748 1329704317.362759 581 467 599 432 451 608
32.769748 1329704317.370729 591 471 611 447 462 639
32.812574 1329704317.379233 607 472 620 470 469 671
32.812574 1329704317.386975 623 474 629 506 472 702
32.853862 1329704317.395983 636 480 639 519 487 735
32.853862 1329704317.405648 653 483 647 497 505 766
32.895722 1329704317.411314 677 486 653 470 510 787
32.895722 1329704317.419649 692 498 665 451 512 814
32.930046 1329704317.428979 716 514 681 434 505 830
32.930046 1329704317.436437 733 518 692 416 491 823
32.985764 1329704317.451906 737 514 699 412 468 818
32.985764 1329704317.463658 740 509 705 422 447 819
33.012017 1329704317.469390 763 500 700 433 431 817
33.012017 1329704317.477792 724 497 697 444 407 804
33.055030 1329704317.486314 727 499 682 434 389 792
33.055030 1329704317.494749 709 502 667 410 376 769
33.094633 1329704317.511733 691 501 653 390 366 736
33.094633 1329704317.522290 663 503 642 374 354 710
33.135449 1329704317.527389 647 511 630 356 340 687
33.135449 1329704317.536204 634 520 618 342 330 662
33.170343 1329704317.546102 617 532 606 336 324 645
33.170343 1329704317.552431 608 542 598 336 327 624
33.210306 1329704317.589003 591 547 593 342 328 594
33.210306 1329704317.594320 580 550 589 351 326 565
33.252154 1329704317.602127 572 555 583 358 321 537
33.252154 1329704317.610911 566 560 576 361 316 510
33.294012 1329704317.618897 563 561 568 360 316 484
33.294012 1329704317.634122 554 562 560 359 323 464
33.335505 1329704317.647265 545 564 554 358 331 442
33.335505 1329704317.652581 539 563 548 357 341 418
33.371234 1329704317.660396 531 558 543 359 350 393
33.371234 1329704317.669225 522 553 539 366 362 374
33.418206 1329704317.677219 517 547 536 374 377 359
33.418206 1329704317.685659 518 539 534 382 394 346
33.452055 1329704317.694195 514 533 535 389 418 332
33.452055 1329704317.713088 511 531 537 394 443 322
33.493684 1329704317.718956 514 530 543 399 471 307
33.493684 1329704317.727424 517 534 551 392 494 281
33.534869 1329704317.741623 530 534 565 380 511 245
33.534869 1329704317.743987 536 533 581 363 518 209
33.576956 1329704317.752424 557 526 596 349 521 175
33.576956 1329704317.781188 580 515 611 332 517 150
33.610289 1329704317.792572 593 505 624 323 509 136
33.610289 1329704317.806104 603 497 636 329 493 134
33.651841 1329704317.812542 613 491 644 344 476 135
33.651841 1329704317.818821 613 488 651 368 458 139
33.693608 1329704317.828796 610 489 654 388 435 141
33.693608 1329704317.835611 615 486 657 394 416 135
33.735018 1329704317.844731 606 483 659 395 399 130
33.735018 1329704317.851909 606 482 660 388 381 127
33.769110 1329704317.860853 609 483 661 373 363 127
33.769110 1329704317.868810 604 480 660 356 351 127
33.810874 1329704317.877390 600 475 660 343 344 124
33.810874 1329704317.885516 596 472 658 333 338 124
33.852448 1329704317.893618 602 466 656 321 332 130
33.852448 1329704317.902028 586 460 655 318 329 149
33.894394 1329704317.910547 578 459 650 328 324 168
33.894394 1329704317.918796 569 458 640 344 317 185
33.936603 1329704317.927338 561 461 628 359 314 208
33.936603 1329704317.935315 554 466 619 373 316 230
33.980800 1329704317.943426 552 471 611 385 321 243
33.980800 1329704317.958909 548 475 604 392 322 252
34.011714 1329704317.961215 542 480 596 389 322 265
34.011714 1329704317.968701 541 482 591 384 328 278
34.052801 1329704317.977392 541 482 587 385 339 283
34.052801 1329704317.985401 531 482 585 395 346 286
34.094700 1329704317.993609 528 484 583 399 349 296
34.094700 1329704318.001901 526 485 581 403 352 308
34.139384 1329704318.010729 525 487 581 409 360 321
34.139384 1329704318.018619 522 489 583 416 365 329
34.169706 1329704318.027302 522 491 584 423 368 332
34.169706 1329704318.035190 519 492 586 427 368 335
34.211382 1329704318.044122 518 491 588 430 372 340
34.211382 1329704318.052070 515 493 592 427 374 349
34.261708 1329704318.060861 515 495 593 424 374 352
34.261708 1329704318.068470 513 494 595 419 376 354
34.294905 1329704318.077050 513 493 597 411 381 356
34.294905 1329704318.085348 511 493 599 405 384 359
34.338050 1329704318.093793 511 494 601 399 384 361
34.338050 1329704318.102196 510 494 603 393 382 365
34.369486 1329704318.110680 511 495 604 384 383 371
34.369486 1329704318.118599 512 497 605 380 382 374
34.412447 1329704318.126970 514 499 606 379 380 373
34.412447 1329704318.135255 514 500 605 377 380 375
34.452465 1329704318.143749 516 500 606 374 380 376
34.452465 1329704318.152010 515 502 607 376 377 378
34.494201 1329704318.161843 514 503 607 379 377 378
34.494201 1329704318.168690 513 503 605 379 377 378
34.535947 1329704318.176925 512 504 606 376 378 377
34.535947 1329704318.184870 513 504 606 376 380 377
34.577526 1329704318.193597 512 503 605 377 379 377
34.577526 1329704318.202061 513 503 606 376 379 377
34.610941 1329704318.211083 513 503 606 372 379 377
34.610941 1329704318.218441 515 503 606 371 378 379
34.652762 1329704318.226889 514 503 605 369 378 378
34.652762 1329704318.234971 515 502 605 368 378 380
34.693873 1329704318.243709 515 503 605 369 378 382
34.693873 1329704318.252208 514 504 605 370 378 379
34.735229 1329704318.269541 514 503 604 370 377 377
34.735229 1329704318.282552 514 504 604 371 378 377
34.780069 1329704318.285144 515 504 605 371 380 377
34.780069 1329704318.293567 515 503 605 373 380 378
34.810305 1329704318.301785 513 504 606 373 380 380
34.810305 1329704318.310288 514 505 607 374 378 381
34.851933 1329704318.318608 515 506 606 374 377 379
34.851933 1329704318.326811 515 506 606 374 377 377
34.893505 1329704318.335167 514 506 606 374 379 375
34.893505 1329704318.343228 515 506 606 374 379 375
34.935188 1329704318.351804 515 506 606 375 377 374
34.935188 1329704318.360585 515 504 605 375 378 374
34.971251 1329704318.368614 514 505 605 374 377 377
34.971251 1329704318.383243 515 505 605 376 377 377
35.009995 1329704318.385567 515 505 603 377 377 374
35.009995 1329704318.393473 514 504 602 375 378 376
35.052122 1329704318.401766 514 504 602 376 378 378
35.052122 1329704318.410231 513 504 599 376 379 381
35.093443 1329704318.421401 512 504 596 376 379 383
35.093443 1329704318.435980 512 503 592 375 381 384
35.135445 1329704318.447426 510 502 588 374 384 389
35.135445 1329704318.453428 506 507 584 372 389 394
35.177076 1329704318.461052 508 514 583 370 397 397
35.177076 1329704318.468884 509 527 583 366 407 396
35.210515 1329704318.477727 507 545 590 360 414 388
35.210515 1329704318.485601 516 564 600 353 421 364
35.252502 1329704318.498482 522 579 611 349 426 331
35.252502 1329704318.502112 528 591 624 350 426 295
35.294704 1329704318.510878 531 598 635 355 419 262
35.294704 1329704318.518888 537 603 644 371 407 233
35.335442 1329704318.527713 545 601 651 389 393 200
35.335442 1329704318.535471 545 594 655 403 373 169
35.375173 1329704318.543737 554 580 656 408 356 146
35.375173 1329704318.551942 553 568 656 402 338 129
35.409786 1329704318.560878 552 562 655 383 321 113
35.409786 1329704318.568754 563 556 653 348 316 93
35.452216 1329704318.577418 564 546 650 315 317 75
35.452216 1329704318.585563 567 539 644 293 313 62
35.493597 1329704318.600785 567 533 638 288 311 63
35.493597 1329704318.603639 567 528 627 297 302 64
35.535665 1329704318.610854 571 523 614 312 296 66
35.535665 1329704318.619045 571 517 600 317 300 71
35.569064 1329704318.627659 577 505 587 316 312 74
35.569064 1329704318.635624 571 489 580 319 331 88
35.610161 1329704318.643573 559 470 576 325 346 119
35.610161 1329704318.654037 553 457 574 335 358 161
35.652003 1329704318.666974 553 438 573 350 373 206
35.652003 1329704318.669550 539 425 574 361 379 268
35.691808 1329704318.677317 554 422 570 349 388 325
35.691808 1329704318.687469 565 418 572 317 394 369
35.735243 1329704318.693656 574 411 575 294 392 414
35.735243 1329704318.702355 605 403 577 309 376 453
35.777148 1329704318.711086 626 395 587 371 374 486
35.777148 1329704318.719151 625 388 602 448 390 537
35.811942 1329704318.727729 628 393 611 483 420 602
35.811942 1329704318.736050 646 402 613 473 445 654
35.851753 1329704318.743929 664 411 623 447 459 695
35.851753 1329704318.752483 669 424 641 418 466 747
35.892958 1329704318.761006 694 436 652 388 462 798
35.892958 1329704318.769213 719 442 653 385 452 850
35.934587 1329704318.778044 755 468 664 418 442 903
35.934587 1329704318.786151 786 504 674 432 434 931
35.975738 1329704318.794038 801 527 677 417 413 938
35.975738 1329704318.802390 808 543 673 404 385 934
36.013367 1329704318.810798 817 547 672 404 369 910
36.013367 1329704318.819238 802 539 663 375 367 896
36.050366 1329704318.827651 802 528 652 335 370 887
36.050366 1329704318.842815 772 524 644 304 371 870
36.091698 1329704318.845975 752 519 638 302 364 850
36.091698 1329704318.852205 741 517 635 319 351 830
36.132911 1329704318.860952 723 522 631 330 330 805
36.132911 1329704318.869148 703 532 623 335 304 778
36.174159 1329704318.877587 679 550 611 349 282 756
36.174159 1329704318.885350 673 562 596 376 275 729
36.221591 1329704318.894026 657 571 588 403 293 700
36.221591 1329704318.902147 637 580 588 422 326 654
36.249840 1329704318.910719 599 590 591 429 351 587
36.249840 1329704318.919177 583 587 592 418 355 523
36.291260 1329704318.927639 571 580 586 395 343 479
36.291260 1329704318.935476 576 571 578 375 329 453
36.332826 1329704318.943889 570 566 569 362 320 432
36.332826 1329704318.952046 565 563 560 354 317 415
36.374093 1329704318.960923 558 561 554 354 329 395
36.374093 1329704318.969282 551 559 550 360 343 373
36.415979 1329704318.977589 544 559 548 370 359 360
36.415979 1329704318.985311 541 559 546 374 373 352
36.449736 1329704318.993910 538 560 547 376 387 340
36.449736 1329704319.002083 536 560 548 376 401 325
36.490457 1329704319.010500 535 561 550 376 419 307
36.490457 1329704319.019169 535 560 553 370 442 284
36.532497 1329704319.027374 538 558 559 365 465 258
36.532497 1329704319.035606 545 554 566 361 485 231
36.573916 1329704319.055988 546 551 575 359 498 205
36.573916 1329704319.062628 554 548 583 354 503 180
36.615502 1329704319.068894 565 546 594 345 502 158
36.615502 1329704319.077908 584 542 606 327 497 134
36.657338 1329704319.085695 596 541 618 310 495 110
36.657338 1329704319.116490 621 536 628 312 485 92
36.690676 1329704319.131065 626 531 636 334 474 77
36.690676 1329704319.135185 626 527 643 368 462 70
36.732562 1329704319.143734 631 526 650 410 439 67
36.732562 1329704319.152193 638 520 654 445 414 62
36.773760 1329704319.160730 630 515 657 462 388 68
36.773760 1329704319.168575 625 513 657 459 364 71
36.816180 1329704319.177162 627 503 653 439 351 69
36.816180 1329704319.185343 614 488 651 413 356 73
36.849599 1329704319.193736 603 480 647 385 359 91
36.849599 1329704319.201822 592 474 644 354 355 117
36.893744 1329704319.210347 579 470 641 328 355 140
36.893744 1329704319.218537 572 469 639 309 359 148
36.941209 1329704319.234905 568 469 635 301 357 154
36.941209 1329704319.237964 560 470 630 293 349 177
36.979912 1329704319.243918 558 471 626 291 357 199
36.979912 1329704319.251814 552 476 623 304 360 212
37.009095 1329704319.260056 545 482 616 331 356 223
37.009095 1329704319.268657 542 490 609 349 354 238
37.050573 1329704319.277099 547 491 605 361 364 242
37.050573 1329704319.285454 545 485 604 383 380 243
37.093944 1329704319.293710 532 482 605 412 384 257
37.093944 1329704319.301879 522 485 603 437 374 282
37.133684 1329704319.310114 523 489 600 459 361 304
37.133684 1329704319.318630 528 490 594 467 360 311
37.174935 1329704319.327254 522 489 591 461 367 312
37.174935 1329704319.343465 515 489 590 441 376 317
37.216302 1329704319.346166 508 490 590 421 379 330
37.216302 1329704319.351778 510 491 591 408 378 343
37.257057 1329704319.359995 511 492 591 405 379 351
37.257057 1329704319.368463 509 495 591 402 378 358
37.291428 1329704319.377190 507 498 593 393 379 362
37.291428 1329704319.385116 507 500 594 388 378 362
37.333276 1329704319.393807 505 499 595 393 377 362
37.333276 1329704319.401756 504 501 596 395 379 365
37.374549 1329704319.410386 505 502 598 392 383 369
37.374549 1329704319.418215 504 501 600 392 385 371
37.417766 1329704319.426965 504 500 602 396 386 377
37.417766 1329704319.435059 506 502 605 399 387 382
37.449550 1329704319.462793 507 503 607 396 391 384
37.449550 1329704319.486443 506 503 608 390 389 386
37.503229 1329704319.510465 508 504 608 384 387 388
37.503229 1329704319.524512 510 506 608 382 386 388
37.532718 1329704319.527727 509 507 608 379 382 384
37.532718 1329704319.534941 506 507 606 372 380 381
37.574700 1329704319.543175 507 508 606 367 380 383
37.574700 1329704319.552032 508 509 608 368 380 383
37.616267 1329704319.560164 505 510 608 375 380 386
37.616267 1329704319.568299 504 510 606 383 379 387
37.649926 1329704319.576594 505 510 604 387 378 388
37.649926 1329704319.585047 504 511 602 387 379 386
37.691232 1329704319.593029 506 510 603 385 382 384
37.691232 1329704319.609054 505 510 602 382 385 382
37.732645 1329704319.612059 505 510 603 377 386 382
37.732645 1329704319.618241 507 511 604 374 385 383
37.774741 1329704319.626538 509 511 604 378 384 380
37.774741 1329704319.635019 509 511 604 378 384 378
37.820039 1329704319.643036 509 512 604 377 386 378
37.820039 1329704319.651871 510 512 605 376 384 376
37.849540 1329704319.660301 511 512 606 379 384 375
37.849540 1329704319.668266 510 511 606 379 385 372
37.891282 1329704319.676744 508 511 607 377 382 372
37.891282 1329704319.684997 510 511 606 373 381 369
37.932351 1329704319.693162 510 509 606 371 382 367
37.932351 1329704319.713544 509 508 606 369 382 366
37.974391 1329704319.720311 509 507 607 369 381 367
37.974391 1329704319.726537 509 507 607 370 379 369
38.015928 1329704319.734730 510 506 607 372 378 369
38.015928 1329704319.743173 510 506 606 373 379 371
38.049421 1329704319.751643 511 505 605 372 380 372
38.049421 1329704319.762634 510 505 605 370 379 374
38.090704 1329704319.768456 512 503 605 371 380 374
38.090704 1329704319.776283 511 502 605 375 379 376
38.136120 1329704319.785009 510 501 604 379 378 377
38.136120 1329704319.793241 509 500 602 379 378 382
38.186668 1329704319.801821 508 503 599 381 379 384
38.186668 1329704319.810235 507 506 595 382 380 386
38.215409 1329704319.818367 502 512 591 383 382 386
38.215409 1329704319.826646 500 521 587 381 385 381
38.257061 1329704319.835207 500 532 587 376 394 372
38.257061 1329704319.843536 499 546 590 373 401 360
38.293442 1329704319.851886 506 561 597 365 412 340
38.293442 1329704319.860538 510 573 608 353 421 313
38.331976 1329704319.868585 515 582 623 343 423 283
38.331976 1329704319.877055 518 589 638 341 414 251
38.373536 1329704319.885099 522 588 649 350 395 223
38.373536 1329704319.893408 528 584 656 367 373 200
38.418372 1329704319.902261 530 580 657 382 353 181
38.418372 1329704319.920946 534 577 655 386 339 161
38.449424 1329704319.926612 541 568 650 381 330 139
38.449424 1329704319.935288 538 554 645 377 324 126
38.490530 1329704319.943687 537 544 640 378 318 124
38.490530 1329704319.952149 544 534 633 381 311 123
38.532388 1329704319.961154 544 523 621 390 300 120
38.532388 1329704319.968482 544 515 607 384 294 119
38.574042 1329704319.976622 545 503 597 364 297 118
38.574042 1329704319.985217 543 493 590 343 304 125
38.619327 1329704319.993486 540 488 584 319 312 137
38.619327 1329704320.001396 541 483 579 300 322 153
38.648883 1329704320.009886 541 477 577 294 329 170
38.648883 1329704320.017895 537 473 577 305 335 196
38.691743 1329704320.026067 538 470 576 322 344 226
38.691743 1329704320.034706 535 460 574 342 344 255
38.732615 1329704320.043926 533 451 572 354 343 292
38.732615 1329704320.051751 543 442 571 351 353 330
38.774683 1329704320.060115 545 434 571 344 361 368
38.774683 1329704320.074440 545 433 574 337 368 412
38.815566 1329704320.076938 561 433 575 332 371 449
38.815566 1329704320.085099 575 427 577 340 373 475
38.848965 1329704320.093480 573 424 585 344 397 519
38.848965 1329704320.101957 583 423 593 353 421 570
38.892385 1329704320.110218 605 422 601 381 432 614
38.892385 1329704320.118497 624 423 613 420 444 654
38.944933 1329704320.126623 645 428 632 445 469 690
38.944933 1329704320.135497 663 436 656 454 497 723
38.973623 1329704320.144232 673 448 678 464 500 751
38.973623 1329704320.152207 686 457 692 492 483 769
39.014598 1329704320.160560 700 464 696 510 478 780
39.014598 1329704320.168928 708 471 703 496 496 802
39.056723 1329704320.176606 717 482 706 467 492 822
39.056723 1329704320.185338 732 485 703 461 466 830
39.089219 1329704320.193705 732 480 694 475 442 847
39.089219 1329704320.202062 749 496 679 427 444 872
39.130168 1329704320.210661 761 518 665 336 445 875
39.130168 1329704320.230759 746 520 648 283 418 855
39.171789 1329704320.236987 741 520 629 252 397 844
39.171789 1329704320.243946 756 528 621 225 398 828
39.215596 1329704320.251952 728 544 623 216 382 788
39.215596 1329704320.260459 692 549 621 236 350 740
39.260069 1329704320.269035 673 545 613 265 316 702
39.260069 1329704320.276727 656 542 603 292 285 680
39.293695 1329704320.285358 636 550 593 322 262 669
39.293695 1329704320.293716 622 560 583 361 251 654
39.329717 1329704320.301843 607 569 575 399 258 629
39.329717 1329704320.310543 591 576 570 428 274 600
39.371873 1329704320.318784 577 581 567 441 293 566
39.371873 1329704320.326640 563 587 567 435 312 524
39.417631 1329704320.335028 552 587 567 417 322 486
39.417631 1329704320.344000 544 586 563 394 329 458
39.455603 1329704320.351673 539 584 558 375 331 432
39.455603 1329704320.360203 531 581 553 361 331 408
39.496160 1329704320.368596 523 577 547 359 335 382
39.496160 1329704320.376461 520 572 541 360 344 357
39.529492 1329704320.388067 521 565 535 363 359 339
39.529492 1329704320.393262 518 558 532 365 382 327
39.573285 1329704320.401419 516 554 531 370 403 317
39.573285 1329704320.409785 517 550 532 375 424 307
39.612866 1329704320.418246 520 547 533 373 444 292
39.612866 1329704320.426007 525 542 539 371 467 277
39.652701 1329704320.442560 531 541 546 372 489 262
39.652701 1329704320.466688 539 540 554 365 503 244
39.695977 1329704320.478823 547 539 565 358 517 224
39.695977 1329704320.484399 563 535 577 354 532 202
39.729792 1329704320.492657 575 532 591 363 535 184
39.729792 1329704320.500782 581 529 605 366 534 169
39.771054 1329704320.509083 598 524 615 356 532 159
39.771054 1329704320.519153 607 525 628 348 521 159
39.813017 1329704320.525571 616 528 638 350 511 156
39.813017 1329704320.534052 618 530 645 362 498 147
39.854311 1329704320.542367 622 529 650 386 484 139
39.854311 1329704320.550438 626 527 655 409 467 133
39.896065 1329704320.558801 629 524 658 428 447 132
39.896065 1329704320.573511 624 520 660 439 429 126
39.930238 1329704320.586847 624 516 662 437 412 114
39.930238 1329704320.600750 627 505 663 426 396 96
39.971262 1329704320.608497 622 492 662 401 380 91
39.971262 1329704320.616289 614 483 657 373 368 99
40.013470 1329704320.624445 607 475 650 351 358 115
40.013470 1329704320.633368 591 473 639 340 352 137
40.057381 1329704320.641558 583 474 632 334 356 154
40.057381 1329704320.649900 577 473 626 332 361 162
40.089057 1329704320.658196 564 470 620 337 358 174
40.089057 1329704320.666205 556 470 613 347 354 200
40.130880 1329704320.674388 555 476 607 360 349 226
40.130880 1329704320.683104 556 480 602 376 347 244
40.174261 1329704320.691464 548 480 598 394 353 251
40.174261 1329704320.699623 540 480 595 404 358 260
40.216949 1329704320.707929 535 482 591 407 356 277
40.216949 1329704320.715998 530 484 590 408 357 298
40.255450 1329704320.724099 529 487 590 414 368 313
40.255450 1329704320.732849 525 490 591 425 371 320
40.288929 1329704320.741307 522 492 592 430 374 326
40.288929 1329704320.749442 521 494 595 436 377 334
40.330513 1329704320.757847 521 495 599 444 378 345
40.330513 1329704320.766590 519 496 602 453 378 354
40.371666 1329704320.774078 516 498 602 452 375 362
40.371666 1329704320.785923 518 500 600 443 374 367
40.409897 1329704320.791373 518 499 600 430 376 369
40.409897 1329704320.799363 518 498 602 421 378 371
40.454828 1329704320.807913 515 498 602 410 381 377
40.454828 1329704320.815780 516 499 601 398 381 385
40.496872 1329704320.824306 517 500 601 387 384 390
40.496872 1329704320.833777 513 503 602 374 384 393
40.530186 1329704320.841157 513 506 601 365 382 394
40.530186 1329704320.849336 513 510 601 356 381 394
40.569943 1329704320.857604 515 513 601 351 384 391
40.569943 1329704320.865900 514 514 604 351 387 387
40.613423 1329704320.873940 512 514 605 355 387 387
40.613423 1329704320.882439 512 516 606 363 385 387
40.655372 1329704320.891078 514 518 607 370 382 386
40.655372 1329704320.899232 515 518 608 375 381 385
40.696683 1329704320.907551 514 519 610 380 380 385
40.696683 1329704320.915692 515 519 610 384 380 386
40.730005 1329704320.923952 517 519 611 386 380 385
40.730005 1329704320.932369 518 519 612 388 378 385
40.772062 1329704320.941252 518 519 611 388 375 383
40.772062 1329704320.949253 518 518 610 385 374 381
40.813646 1329704320.957550 517 516 608 379 374 380
40.813646 1329704320.965687 517 516 607 374 373 381
40.868530 1329704320.973842 517 515 606 372 371 380
40.868530 1329704320.984115 517 514 604 372 371 378
40.896654 1329704320.990955 516 513 602 371 372 378
40.896654 1329704320.999090 517 512 601 370 375 379
40.930424 1329704321.007418 518 511 602 372 377 381
40.930424 1329704321.015700 516 510 601 376 378 383
40.971174 1329704321.023848 516 509 601 377 380 387
40.971174 1329704321.032277 517 509 601 377 381 387
41.013268 1329704321.040898 518 510 601 380 382 388
41.013268 1329704321.049170 518 511 601 379 384 388
41.049629 1329704321.057314 517 513 604 376 385 389
41.049629 1329704321.065572 517 516 606 375 384 387
41.104826 1329704321.073826 513 518 605 378 380 385
41.104826 1329704321.082273 510 523 605 378 379 381
41.129463 1329704321.092581 509 530 604 378 374 374
41.129463 1329704321.098856 505 536 600 380 370 365
41.183242 1329704321.109403 500 542 595 381 366 354
41.183242 1329704321.115777 496 550 589 378 369 341
41.212945 1329704321.124111 499 559 585 368 380 328
41.212945 1329704321.139275 504 567 586 356 400 314
41.254693 1329704321.170231 505 577 591 347 419 297
41.254693 1329704321.181606 513 585 600 340 430 275
41.303110 1329704321.183618 520 590 611 345 430 254
41.303110 1329704321.190747 528 592 625 358 423 234
41.329816 1329704321.198881 540 595 637 376 407 215
41.329816 1329704321.207163 545 596 647 395 386 191
41.370446 1329704321.217777 552 592 652 406 369 165
41.370446 1329704321.229294 551 585 652 411 355 148
41.413621 1329704321.234012 550 575 651 408 344 132
41.413621 1329704321.240794 549 566 649 403 338 122
41.454053 1329704321.249073 548 557 648 398 335 118
41.454053 1329704321.257220 542 550 643 397 323 120
41.496036 1329704321.265992 542 545 637 394 312 122
41.496036 1329704321.274054 543 537 629 386 308 127
41.530081 1329704321.283902 541 527 622 377 302 137
41.530081 1329704321.292677 541 518 614 361 299 146
41.579069 1329704321.299050 541 513 606 337 300 151
41.579069 1329704321.307552 542 509 601 313 303 155
41.613116 1329704321.316097 543 505 597 292 303 158
41.613116 1329704321.324089 544 499 592 277 303 164
41.654250 1329704321.332373 544 495 587 277 302 176
41.654250 1329704321.340830 548 492 581 286 303 190
41.688722 1329704321.349235 551 488 577 303 313 205
41.688722 1329704321.356965 547 482 575 320 321 219
41.730451 1329704321.365449 543 475 572 336 327 240
41.730451 1329704321.385188 543 466 570 354 329 261
41.771910 1329704321.390490 540 455 569 373 328 288
41.771910 1329704321.399179 533 444 569 392 327 326
41.815302 1329704321.407749 533 438 570 399 339 369
41.815302 1329704321.415350 545 433 569 395 363 407
41.854776 1329704321.423909 547 426 573 389 383 440
41.854776 1329704321.446555 550 422 577 386 400 474
41.902177 1329704321.448816 557 421 578 390 406 507
41.902177 1329704321.457314 580 418 576 398 405 540
41.929483 1329704321.467392 583 419 584 411 422 578
41.929483 1329704321.473973 588 425 596 418 459 629
41.970849 1329704321.493121 615 434 610 432 493 681
41.970849 1329704321.516206 657 441 621 467 495 712
42.012042 1329704321.527874 679 448 633 519 485 721
42.012042 1329704321.541761 679 458 646 532 506 744
42.067227 1329704321.548817 699 464 651 519 531 768
42.067227 1329704321.557087 727 468 653 518 536 781
42.095257 1329704321.565283 741 480 662 511 548 796
42.095257 1329704321.575883 759 496 673 459 567 806
42.136957 1329704321.596063 766 512 683 386 562 814
42.136957 1329704321.599342 773 525 679 336 516 816
42.177152 1329704321.608018 782 541 667 314 468 820
42.177152 1329704321.615581 796 558 652 303 444 812
42.214038 1329704321.624116 782 573 643 273 445 797
42.214038 1329704321.632602 771 578 635 240 453 785
42.251900 1329704321.640700 752 582 635 227 441 765
42.251900 1329704321.649403 727 586 641 230 411 723
42.293744 1329704321.657730 699 580 640 244 371 675
42.293744 1329704321.665799 663 575 631 259 339 655
42.337934 1329704321.674381 645 572 622 285 321 637
42.337934 1329704321.682828 632 565 613 319 310 617
42.376910 1329704321.690812 626 560 602 356 299 602
42.376910 1329704321.701259 614 560 595 383 302 592
42.410244 1329704321.708276 607 560 591 386 312 576
42.410244 1329704321.716064 593 555 590 379 319 561
42.451351 1329704321.724406 588 554 585 379 319 560
42.451351 1329704321.732913 577 563 581 382 317 559
42.496564 1329704321.757788 570 574 579 372 320 546
42.496564 1329704321.781842 560 584 575 354 324 522
42.540166 1329704321.795344 546 597 568 344 336 459
42.578538 1329704321.827918 529 596 558 365 345 392
42.617522 1329704321.839911 530 585 552 392 372 338
42.651867 1329704321.845010 534 570 554 416 406 306
42.696777 1329704321.849012 537 564 558 422 422 295
42.696777 1329704321.857632 541 560 563 421 434 285
42.731246 1329704321.866050 550 548 575 409 455 249
42.776360 1329704321.874399 558 547 584 395 457 235
42.776360 1329704321.882566 565 546 597 373 454 215
42.809795 1329704321.891150 572 543 604 348 448 191
42.809795 1329704321.899167 581 538 611 327 444 168
42.855818 1329704321.908345 594 533 618 308 442 150
42.855818 1329704321.916902 598 527 623 294 439 138
42.893099 1329704321.924414 609 518 628 294 441 127
42.893099 1329704321.932463 607 515 631 306 433 128
42.936676 1329704321.941196 610 514 632 318 422 138
42.936676 1329704321.949186 612 513 632 339 416 138
42.976229 1329704321.957784 611 507 632 371 412 134
42.976229 1329704321.968614 606 501 633 404 406 137
43.011790 1329704321.984017 599 498 633 429 394 153
43.011790 1329704321.998527 598 493 632 454 382 162
43.052029 1329704322.019961 598 488 631 472 372 162
43.052029 1329704322.024617 589 486 628 473 359 169
43.100364 1329704322.033389 583 486 622 459 344 183
43.100364 1329704322.041348 580 481 617 436 343 190
43.135602 1329704322.049919 576 476 614 416 348 190
43.135602 1329704322.057893 568 473 612 395 351 193
43.177503 1329704322.066386 563 472 610 373 351 208
43.177503 1329704322.074613 562 468 610 356 353 220
43.210720 1329704322.083355 559 464 611 358 354 227
43.210720 1329704322.091282 549 461 610 370 352 240
43.253018 1329704322.099541 543 463 607 375 345 262
43.253018 1329704322.108018 542 465 604 377 344 282
43.293989 1329704322.116337 541 469 602 382 346 295
43.293989 1329704322.124546 535 474 600 390 346 304
43.336156 1329704322.133079 531 480 597 388 347 315
43.336156 1329704322.141217 535 484 595 382 352 324
43.369492 1329704322.156882 531 486 594 383 358 330
43.369492 1329704322.180173 527 487 595 392 364 334
43.410617 1329704322.183468 523 491 595 397 367 339
43.410617 1329704322.191334 522 492 597 394 368 342
43.452476 1329704322.199158 522 491 597 399 368 343
43.452476 1329704322.208216 519 491 598 404 370 342
43.493916 1329704322.216047 515 491 599 406 374 346
43.493916 1329704322.233285 511 491 600 402 377 356
43.542977 1329704322.246504 511 493 600 395 379 366
43.542977 1329704322.278210 512 496 601 390 381 369
43.577080 1329704322.290116 512 498 601 387 384 371
43.577080 1329704322.295397 510 501 603 382 384 373
43.610300 1329704322.310398 512 503 603 380 381 375
43.610300 1329704322.333523 516 504 603 378 380 375
43.652228 1329704322.340783 514 505 604 378 382 377
43.652228 1329704322.351570 515 508 606 376 384 381
43.693984 1329704322.357106 515 510 607 374 382 381
43.693984 1329704322.365201 518 511 607 374 380 377
43.735867 1329704322.374010 519 511 607 375 381 375
43.735867 1329704322.382337 517 510 608 376 381 375
43.776976 1329704322.390463 518 510 609 377 379 376
43.776976 1329704322.398799 519 510 609 381 376 376
43.810395 1329704322.407118 518 510 607 383 375 376
43.810395 1329704322.414764 516 510 606 383 374 376
43.857675 1329704322.424038 516 510 605 378 374 376
43.857675 1329704322.431992 517 510 604 376 374 374
43.893700 1329704322.440684 517 509 603 375 377 374
43.893700 1329704322.449074 516 508 602 375 378 374
43.935180 1329704322.464501 515 508 602 374 380 375
43.935180 1329704322.489421 515 508 601 375 379 376
43.977190 1329704322.492564 517 508 601 375 380 376
43.977190 1329704322.498777 515 509 601 376 383 377
44.010358 1329704322.506778 515 509 601 376 385 379
44.010358 1329704322.515614 517 510 601 378 385 378
44.060514 1329704322.523748 517 510 601 380 386 377
44.060514 1329704322.540569 516 510 601 381 386 376
44.093136 1329704322.548765 516 510 600 381 386 375
44.093136 1329704322.556865 514 510 598 379 386 376
44.135084 1329704322.565157 511 511 597 378 387 376
44.135084 1329704322.573851 507 512 594 372 390 377
44.169015 1329704322.582404 500 516 591 367 392 379
44.169015 1329704322.601617 492 523 589 367 395 381
44.210444 1329704322.609170 491 530 585 370 402 378
44.210444 1329704322.615433 497 537 586 371 417 372
44.252197 1329704322.623694 497 545 590 370 432 363
44.252197 1329704322.632554 502 553 597 365 439 353
44.292927 1329704322.641065 510 563 605 361 441 346
44.292927 1329704322.648957 522 572 614 361 435 334
44.335809 1329704322.658455 529 581 621 363 427 317
44.335809 1329704322.665564 541 589 626 360 417 295
44.376469 1329704322.674827 554 593 632 359 417 271
44.376469 1329704322.682533 563 596 637 365 411 242
44.409336 1329704322.691139 572 594 643 370 402 205
44.409336 1329704322.711598 575 588 647 371 384 174
44.451342 1329704322.715828 582 580 647 371 366 156
44.451342 1329704322.724225 584 574 644 376 351 144
44.492924 1329704322.732215 585 565 641 383 336 131
44.492924 1329704322.741109 592 554 638 382 331 118
44.535262 1329704322.749121 582 544 636 377 327 113
44.535262 1329704322.765262 572 535 634 368 320 119
44.576810 1329704322.768735 570 527 628 357 312 126
44.576810 1329704322.774050 566 520 622 349 306 129
44.610188 1329704322.782282 563 515 616 339 303 134
44.610188 1329704322.790761 565 507 610 332 306 139
44.652143 1329704322.799465 555 501 604 330 307 145
44.652143 1329704322.807200 550 498 599 330 305 156
44.693699 1329704322.823858 552 498 593 331 310 168
44.693699 1329704322.829289 547 492 589 339 318 178
44.731800 1329704322.832346 541 487 587 351 320 196
44.731800 1329704322.840588 536 486 584 365 323 216
44.776967 1329704322.849134 537 483 579 368 320 232
44.776967 1329704322.857415 532 477 576 366 323 248
44.810834 1329704322.878906 524 469 571 358 320 268
44.810834 1329704322.882029 527 463 562 338 323 288
44.852310 1329704322.890514 525 456 558 304 338 307
44.852310 1329704322.899152 512 447 560 277 360 338
44.892982 1329704322.907517 514 440 564 269 378 381
44.892982 1329704322.915061 524 436 571 289 380 422
44.944293 1329704322.932171 533 433 576 355 360 463
44.944293 1329704322.955592 553 432 576 432 347 502
44.976520 1329704322.969740 558 435 579 481 372 547
44.976520 1329704322.973589 559 437 589 483 420 596
45.013234 1329704322.982528 585 440 597 456 467 643
45.013234 1329704322.990211 622 440 602 441 482 668
45.059339 1329704322.999003 640 439 614 465 479 684
45.059339 1329704323.007116 647 442 629 491 497 722
45.089762 1329704323.015250 673 445 637 486 519 767
45.089762 1329704323.024150 699 457 640 466 525 805
45.134254 1329704323.032361 742 469 647 478 523 824
45.134254 1329704323.041680 770 485 661 475 527 824
45.175780 1329704323.049496 776 496 673 412 528 821
45.175780 1329704323.062655 778 500 676 328 501 822
45.217025 1329704323.066165 786 502 669 282 458 825
45.217025 1329704323.074763 807 511 663 300 417 816
45.249691 1329704323.082713 816 525 659 329 402 798
45.249691 1329704323.091099 793 533 657 351 392 782
45.292574 1329704323.099544 762 534 650 375 379 769
45.292574 1329704323.107525 741 531 642 398 364 763
45.332335 1329704323.115767 729 518 631 414 361 754
45.332335 1329704323.124382 706 513 619 418 366 748
45.375893 1329704323.132939 695 512 610 411 372 727
45.375893 1329704323.141455 668 518 605 393 376 700
45.415944 1329704323.149571 658 525 602 363 376 674
45.415944 1329704323.157854 639 533 600 340 366 646
45.456888 1329704323.165921 629 535 594 325 356 620
45.456888 1329704323.174248 617 537 589 315 355 598
45.495433 1329704323.182750 607 540 586 314 358 577
45.495433 1329704323.191040 588 545 586 314 355 554
45.531819 1329704323.199535 579 549 585 311 347 533
45.531819 1329704323.212899 571 552 581 303 338 515
45.579028 1329704323.228276 561 556 577 305 326 503
45.579028 1329704323.252729 554 561 572 317 321 488
45.619646 1329704323.267755 545 569 567 329 324 469
45.619646 1329704323.275003 538 575 562 342 329 445
45.649000 1329704323.282293 536 576 558 352 340 422
45.649000 1329704323.291178 530 576 554 358 354 402
