imu_t vicon_t accel_x accel_y accel_z gyro_x gyro_y gyro_z
1.077275 1329704478.124245 506 505 605 375 376 370
1.140217 1329704478.274817 506 505 605 375 376 369
1.140217 1329704478.282451 506 505 605 375 377 370
1.140217 1329704478.290750 506 505 606 374 376 370
1.140217 1329704478.298873 506 505 606 373 375 370
1.140217 1329704478.310025 506 505 605 375 376 369
1.140217 1329704478.315493 506 506 605 375 375 371
1.198458 1329704478.324040 506 505 606 374 376 369
1.198458 1329704478.332466 506 505 605 374 376 370
1.198458 1329704478.341390 506 505 605 374 377 371
1.198458 1329704478.349094 506 505 605 374 377 370
1.198458 1329704478.356835 506 505 605 374 375 371
1.198458 1329704478.365523 507 506 605 374 375 371
1.256632 1329704478.374693 506 506 604 374 376 370
1.256632 1329704478.382352 506 505 605 375 376 371
1.256632 1329704478.391247 506 505 606 374 376 371
1.256632 1329704478.398854 506 505 605 374 376 369
1.256632 1329704478.406861 506 505 605 374 376 370
1.256632 1329704478.418808 506 505 605 374 376 370
1.331344 1329704478.425746 506 505 605 374 376 370
1.331344 1329704478.432251 506 505 605 374 376 370
1.331344 1329704478.440495 506 505 605 375 376 370
1.331344 1329704478.449155 506 505 606 374 376 370
1.331344 1329704478.457458 506 505 605 373 376 371
1.331344 1329704478.472664 506 505 605 374 376 370
1.381518 1329704478.484842 506 505 605 374 375 370
1.381518 1329704478.491440 507 505 605 374 377 370
1.381518 1329704478.498740 506 505 605 374 376 370
1.381518 1329704478.507036 507 505 605 374 377 372
1.381518 1329704478.515418 507 505 605 375 378 370
1.381518 1329704478.524355 506 505 605 374 376 370
1.440295 1329704478.532102 506 506 605 374 375 371
1.440295 1329704478.540606 506 505 605 374 375 371
1.440295 1329704478.548838 506 505 605 375 376 369
1.440295 1329704478.556917 506 505 605 374 376 370
1.440295 1329704478.565357 506 505 605 374 376 370
1.440295 1329704478.573648 507 505 606 374 375 370
1.498241 1329704478.582015 507 505 605 374 376 370
1.498241 1329704478.590407 507 505 605 375 376 370
1.498241 1329704478.598394 506 505 605 374 376 370
1.498241 1329704478.606865 506 505 605 374 376 369
1.498241 1329704478.615344 506 505 605 375 376 370
1.498241 1329704478.623476 506 505 605 373 377 370
1.556013 1329704478.632000 506 506 605 375 377 369
1.556013 1329704478.640392 506 506 605 374 377 370
1.556013 1329704478.648467 507 505 605 374 376 370
1.556013 1329704478.656924 506 505 605 373 375 370
1.556013 1329704478.665228 506 505 605 374 376 370
1.556013 1329704478.673556 506 505 605 375 375 370
1.615008 1329704478.681792 507 505 605 374 376 370
1.615008 1329704478.690338 506 505 605 374 376 370
1.615008 1329704478.698321 506 505 605 374 376 370
1.615008 1329704478.707057 505 506 605 373 376 370
1.615008 1329704478.715190 505 506 605 374 375 370
1.615008 1329704478.723383 505 506 605 375 376 370
1.681237 1329704478.731759 506 505 605 374 376 371
1.681237 1329704478.740267 506 505 605 374 376 370
1.681237 1329704478.748419 507 505 605 374 375 370
1.681237 1329704478.756752 508 505 605 374 375 371
1.681237 1329704478.765248 507 505 605 373 376 369
1.681237 1329704478.773358 507 505 605 374 376 370
1.739128 1329704478.781700 506 505 605 373 376 370
1.739128 1329704478.790186 506 505 605 374 376 370
1.739128 1329704478.798309 505 506 605 375 377 370
1.739128 1329704478.806849 506 506 605 374 376 370
1.739128 1329704478.815234 506 506 605 375 376 370
1.739128 1329704478.823372 506 505 605 375 375 371
1.797661 1329704478.831717 507 505 605 374 377 370
1.797661 1329704478.840249 507 505 605 374 375 370
1.797661 1329704478.848439 507 505 605 374 376 370
1.797661 1329704478.856744 507 505 605 374 376 370
1.797661 1329704478.865483 506 505 605 373 376 370
1.797661 1329704478.875518 506 505 605 374 376 370
1.856170 1329704478.882563 506 506 605 375 376 370
1.856170 1329704478.890110 506 505 605 374 376 371
1.856170 1329704478.898338 506 505 605 374 376 370
1.856170 1329704478.906487 506 505 605 374 377 370
1.856170 1329704478.914985 506 505 605 375 375 370
1.919057 1329704478.923348 506 505 604 374 376 371
1.919057 1329704478.937255 506 505 605 374 376 369
1.919057 1329704478.942663 506 505 605 375 376 370
1.919057 1329704478.957170 507 505 605 375 377 370
1.919057 1329704478.969184 507 505 605 373 376 370
1.974339 1329704478.974899 507 505 606 374 375 369
1.974339 1329704478.987596 507 505 605 375 376 370
1.974339 1329704478.990168 506 505 605 374 376 370
1.974339 1329704479.002550 506 505 605 374 376 370
1.974339 1329704479.007157 506 506 605 374 377 369
1.974339 1329704479.015041 506 506 605 373 376 370
2.039301 1329704479.023121 506 505 605 375 376 370
2.039301 1329704479.031779 506 505 605 374 375 370
2.039301 1329704479.040129 507 505 605 374 377 370
2.039301 1329704479.048437 507 505 604 374 376 370
2.039301 1329704479.056617 506 505 605 374 376 371
2.039301 1329704479.065153 506 505 605 374 376 370
2.089160 1329704479.072947 506 506 605 374 376 370
2.089160 1329704479.081799 506 506 605 375 376 370
2.089160 1329704479.090180 506 506 605 374 376 370
2.089160 1329704479.098261 506 505 605 374 376 369
2.114007 1329704479.106646 507 505 605 375 376 370
2.114007 1329704479.114680 506 505 605 375 376 371
2.155052 1329704479.123107 506 506 604 375 375 370
2.186515 1329704479.131611 506 505 605 375 377 370
2.186515 1329704479.140063 506 505 605 374 376 370
2.208893 1329704479.148279 506 505 605 374 376 370
2.238647 1329704479.156633 507 505 604 374 375 370
2.238647 1329704479.164834 506 505 605 374 376 371
2.263763 1329704479.172893 505 506 605 375 376 371
2.297220 1329704479.181649 506 506 605 375 376 370
2.297220 1329704479.190150 507 505 605 374 376 370
2.330429 1329704479.202427 507 505 605 374 377 370
2.355349 1329704479.208542 506 506 605 374 376 370
2.355349 1329704479.221065 505 505 605 375 376 370
2.387706 1329704479.223270 506 506 604 375 376 371
2.413882 1329704479.231378 506 505 605 374 376 370
2.413882 1329704479.240161 506 505 605 375 375 370
2.447046 1329704479.255274 506 505 605 375 376 370
2.480043 1329704479.278081 506 505 605 373 376 370
2.480043 1329704479.281223 506 505 605 375 377 370
2.504382 1329704479.290520 506 506 605 373 376 369
2.543511 1329704479.298435 506 506 605 375 376 369
2.543511 1329704479.307636 506 505 605 375 377 370
2.571817 1329704479.316395 507 506 605 374 376 370
2.593582 1329704479.329236 507 505 605 374 376 370
2.593582 1329704479.342958 506 505 605 374 376 370
2.630548 1329704479.357821 506 506 605 373 377 369
2.654799 1329704479.364637 506 505 605 374 376 370
2.654799 1329704479.373068 506 505 605 375 376 370
2.688324 1329704479.380961 507 505 605 374 376 370
2.717826 1329704479.392077 506 505 605 373 375 369
2.717826 1329704479.397710 506 505 605 373 376 370
2.746772 1329704479.405884 506 505 605 374 376 370
2.788447 1329704479.414747 506 506 605 374 376 371
2.788447 1329704479.422612 506 506 605 374 375 370
2.805213 1329704479.430507 506 505 605 373 376 370
2.838193 1329704479.439977 506 505 605 374 377 371
2.838193 1329704479.447518 507 505 605 375 376 370
2.871909 1329704479.455857 506 505 605 374 376 369
2.896641 1329704479.464187 506 506 605 375 376 371
2.896641 1329704479.472472 506 505 605 373 376 370
2.929914 1329704479.480400 506 505 605 375 376 371
2.954984 1329704479.499377 506 505 606 374 376 369
2.954984 1329704479.513062 506 506 605 373 377 370
2.988179 1329704479.515113 506 506 605 374 376 370
3.013704 1329704479.522328 506 505 604 375 376 371
3.013704 1329704479.530806 506 505 605 375 376 370
3.043511 1329704479.538607 506 505 605 374 376 370
3.079559 1329704479.547257 506 505 605 374 376 370
3.079559 1329704479.555512 506 505 605 375 377 370
3.104740 1329704479.563615 506 505 605 375 376 369
3.146398 1329704479.572005 506 506 605 375 376 371
3.146398 1329704479.597018 506 505 605 374 375 371
3.188077 1329704479.599046 506 506 605 374 375 370
3.188077 1329704479.605310 507 505 605 374 377 370
3.229663 1329704479.615179 506 505 605 374 377 370
3.229663 1329704479.635580 506 506 605 374 376 369
3.265886 1329704479.638822 506 506 604 374 375 371
3.265886 1329704479.647203 506 505 605 375 376 370
3.304531 1329704479.655362 506 505 605 374 376 370
3.304531 1329704479.663836 506 505 605 373 377 370
3.346020 1329704479.671960 506 505 605 373 377 370
3.346020 1329704479.684457 506 505 605 374 375 371
3.388136 1329704479.688559 505 506 604 374 376 370
3.388136 1329704479.697121 505 506 605 377 378 370
3.426426 1329704479.705922 506 505 605 372 374 371
3.426426 1329704479.714002 508 504 604 374 377 370
3.472693 1329704479.722153 507 505 606 375 378 369
3.472693 1329704479.730327 501 508 607 376 378 370
3.505985 1329704479.738776 501 509 602 387 393 372
3.505985 1329704479.747112 493 512 608 381 385 364
3.546442 1329704479.755260 514 501 602 395 403 370
3.546442 1329704479.763884 511 501 609 402 412 378
3.587630 1329704479.771805 512 506 604 400 414 383
3.587630 1329704479.784756 520 511 611 405 425 385
3.630744 1329704479.788766 524 511 617 398 433 379
3.630744 1329704479.796985 524 506 633 389 426 378
3.670908 1329704479.805100 525 508 641 375 415 375
3.670908 1329704479.814183 527 514 642 368 408 373
3.712205 1329704479.821687 526 512 639 373 387 375
3.750796 1329704479.834666 528 511 636 363 368 381
3.787551 1329704479.838660 529 510 629 363 347 385
3.813183 1329704479.846976 525 511 610 372 340 383
3.847580 1329704479.855277 523 510 603 390 342 379
3.892380 1329704479.863611 520 504 598 401 355 374
3.892380 1329704479.871677 516 501 594 405 370 368
3.920797 1329704479.880749 513 502 596 411 389 383
3.946038 1329704479.888740 518 494 597 401 392 384
3.989423 1329704479.897005 520 491 598 384 383 378
3.989423 1329704479.904861 515 494 599 371 374 371
4.020663 1329704479.914017 516 498 598 369 368 368
4.046434 1329704479.921762 516 495 595 371 365 366
4.087824 1329704479.935279 512 497 595 377 363 365
4.087824 1329704479.938507 515 498 593 381 367 367
4.129145 1329704479.947059 512 498 591 382 371 368
4.129145 1329704479.954868 513 495 594 384 372 371
4.171061 1329704479.963399 515 490 598 380 371 370
4.171061 1329704479.971898 512 488 601 370 371 373
4.204426 1329704479.979866 509 493 601 367 367 376
4.204426 1329704479.988615 514 493 599 362 369 378
4.246033 1329704479.996758 510 494 598 364 377 376
4.246033 1329704480.004709 510 498 597 369 392 374
4.304354 1329704480.013749 512 497 595 375 401 370
4.304354 1329704480.021755 515 495 594 381 395 363
4.329039 1329704480.034701 512 491 596 381 385 355
4.329039 1329704480.038439 507 491 599 374 377 356
4.370520 1329704480.046869 502 491 603 370 373 359
4.370520 1329704480.055714 500 493 606 362 374 369
4.412102 1329704480.063388 502 486 605 353 371 377
4.412102 1329704480.072594 503 492 605 350 362 378
4.445737 1329704480.084522 506 494 601 351 360 379
4.445737 1329704480.088348 508 493 597 357 353 376
4.487411 1329704480.096821 507 497 597 366 345 374
4.487411 1329704480.104845 505 495 596 364 338 371
4.528955 1329704480.113393 506 495 596 357 331 373
4.528955 1329704480.121697 508 500 596 351 333 379
4.570276 1329704480.130779 511 495 595 342 360 370
4.570276 1329704480.142269 507 503 591 343 384 359
4.612338 1329704480.146650 497 506 588 353 398 357
4.612338 1329704480.154897 501 504 590 355 418 359
4.645806 1329704480.162957 507 503 589 347 427 360
4.645806 1329704480.171695 504 503 598 348 416 363
4.689296 1329704480.184727 516 502 605 355 405 364
4.689296 1329704480.189651 517 500 608 370 385 367
4.729298 1329704480.196830 515 506 610 388 369 365
4.729298 1329704480.204734 510 507 604 406 358 366
4.765431 1329704480.213221 508 512 604 410 358 361
4.765431 1329704480.221630 508 510 606 423 365 353
4.804555 1329704480.233002 511 504 609 439 373 354
4.804555 1329704480.240055 511 500 612 449 380 360
4.844995 1329704480.246616 511 499 613 446 379 362
4.844995 1329704480.255224 512 495 615 421 374 359
4.886775 1329704480.263096 515 491 612 381 365 358
4.886775 1329704480.271691 516 490 611 345 358 359
4.928241 1329704480.279782 512 489 609 327 351 361
4.928241 1329704480.288186 510 488 606 326 347 364
4.970172 1329704480.296883 508 490 604 338 348 369
4.970172 1329704480.305000 504 494 602 355 355 373
5.011973 1329704480.312969 500 497 600 375 358 372
5.011973 1329704480.321617 502 498 599 394 364 369
5.045017 1329704480.329711 503 497 598 407 369 370
5.045017 1329704480.337906 505 497 597 410 373 372
5.087766 1329704480.346659 506 499 597 406 378 370
5.087766 1329704480.354841 507 500 598 396 379 364
5.128280 1329704480.362946 506 500 599 384 375 359
5.128280 1329704480.371470 507 498 598 370 372 358
5.170412 1329704480.379665 507 499 598 361 376 359
5.170412 1329704480.395549 505 500 599 359 384 360
5.211557 1329704480.406773 506 500 602 361 386 362
5.211557 1329704480.420635 505 500 602 366 386 365
5.244466 1329704480.422553 507 499 604 371 389 368
5.244466 1329704480.429870 510 499 604 368 385 368
5.286441 1329704480.437573 509 500 605 368 383 368
5.286441 1329704480.452146 497 495 607 371 383 365
5.327868 1329704480.474611 505 490 606 377 389 361
5.369882 1329704480.485327 499 491 603 383 380 367
5.411035 1329704480.490074 512 495 607 408 385 364
5.444889 1329704480.497297 504 486 609 442 391 375
5.486347 1329704480.504400 507 486 613 428 385 383
5.527857 1329704480.513163 500 488 610 366 362 371
5.569387 1329704480.521425 501 487 607 325 366 369
5.594066 1329704480.529355 497 487 614 323 372 372
5.627912 1329704480.537939 496 481 616 339 369 376
5.669290 1329704480.546381 495 473 617 358 367 385
5.669290 1329704480.554404 494 466 618 377 369 395
5.716772 1329704480.562924 495 460 616 397 368 404
5.716772 1329704480.571309 493 454 614 410 359 415
5.744256 1329704480.582441 497 447 608 417 349 429
5.744256 1329704480.588122 506 438 601 421 345 444
5.785696 1329704480.596105 504 438 593 428 348 464
5.785696 1329704480.604127 498 432 588 425 357 486
5.826883 1329704480.614817 500 430 588 418 364 504
5.826883 1329704480.621127 501 430 593 410 374 522
5.869536 1329704480.639795 501 433 599 400 376 534
5.869536 1329704480.653506 504 436 611 385 382 545
5.911976 1329704480.655452 503 442 625 372 382 553
5.911976 1329704480.662399 506 447 639 363 377 560
5.951792 1329704480.671029 511 450 654 357 367 571
5.951792 1329704480.679569 521 456 670 345 352 583
5.984954 1329704480.687674 523 470 679 323 315 591
5.984954 1329704480.706686 525 485 676 309 280 586
6.026892 1329704480.712726 532 494 666 310 257 581
6.026892 1329704480.720457 526 503 654 317 239 577
6.068225 1329704480.729535 520 513 636 323 220 562
6.068225 1329704480.737652 524 520 613 326 209 546
6.109715 1329704480.745693 529 521 595 331 204 538
6.109715 1329704480.755664 520 523 580 331 198 530
6.151105 1329704480.766962 525 525 563 330 202 522
6.151105 1329704480.770207 523 529 548 336 223 514
6.184189 1329704480.779339 520 533 539 344 249 501
6.184189 1329704480.787881 517 536 533 356 268 492
6.235066 1329704480.795738 512 539 527 370 290 482
6.235066 1329704480.809268 510 542 522 381 321 473
6.267485 1329704480.812540 508 543 519 393 350 455
6.267485 1329704480.820423 509 545 519 407 375 439
6.308969 1329704480.829237 506 551 524 417 402 425
6.308969 1329704480.837534 512 558 533 426 429 408
6.350619 1329704480.845876 519 565 544 438 446 392
6.350619 1329704480.859285 519 572 553 446 456 371
6.387639 1329704480.862695 516 574 561 451 463 348
6.387639 1329704480.871535 521 572 572 454 470 323
6.425927 1329704480.881145 524 576 581 455 480 291
6.425927 1329704480.888555 534 572 588 450 479 262
6.474616 1329704480.896367 541 568 594 448 477 238
6.474616 1329704480.904107 548 566 597 449 477 212
6.509741 1329704480.912764 561 562 596 454 480 181
6.509741 1329704480.920513 567 555 598 459 480 157
6.551404 1329704480.929236 569 543 604 462 480 129
6.551404 1329704480.937392 587 534 610 459 488 100
6.585177 1329704480.945518 597 528 615 445 493 75
6.585177 1329704480.954049 608 528 624 422 487 54
6.626350 1329704480.962611 618 523 639 417 479 22
6.626350 1329704480.970456 639 524 653 437 482 4
6.659441 1329704480.983413 658 524 665 443 465 4
6.659441 1329704480.987591 661 513 685 442 438 4
6.684299 1329704480.999133 677 499 703 440 409 4
6.718153 1329704481.003931 686 484 706 430 381 4
6.718153 1329704481.012406 690 464 705 389 352 4
6.753939 1329704481.020242 689 436 706 353 324 4
6.795318 1329704481.029044 691 415 704 343 306 4
6.795318 1329704481.037568 688 424 698 342 297 4
6.826998 1329704481.054114 659 415 686 313 285 17
6.869094 1329704481.062670 637 425 665 302 243 72
6.907161 1329704481.070852 609 433 634 300 236 98
6.945894 1329704481.078568 593 432 618 335 234 149
6.985584 1329704481.087383 576 434 601 333 232 168
6.985584 1329704481.095906 568 438 583 326 240 182
7.026835 1329704481.103896 549 432 571 326 250 198
7.026835 1329704481.112644 539 429 562 334 260 215
7.068567 1329704481.120827 527 426 553 341 267 234
7.068567 1329704481.128497 531 428 548 352 281 260
7.110044 1329704481.137519 520 425 545 362 293 295
7.110044 1329704481.145802 506 422 540 367 305 320
7.145477 1329704481.153996 501 425 534 370 317 342
7.145477 1329704481.162331 505 430 531 368 330 367
7.192936 1329704481.170811 498 431 530 372 350 394
7.192936 1329704481.178384 499 435 530 381 368 417
7.234553 1329704481.187446 498 440 529 391 386 439
7.234553 1329704481.195604 498 444 530 398 405 458
7.267666 1329704481.203754 503 451 533 399 432 474
7.267666 1329704481.212270 507 457 540 403 453 491
7.307733 1329704481.220750 513 462 550 410 475 505
7.307733 1329704481.228782 518 465 562 414 496 518
7.351695 1329704481.237277 525 470 574 414 506 533
7.351695 1329704481.245738 530 471 589 423 509 543
7.384871 1329704481.253873 539 475 602 437 514 554
7.384871 1329704481.262441 544 479 615 441 509 562
7.426564 1329704481.270407 549 483 627 441 493 566
7.426564 1329704481.279318 557 489 636 450 482 569
7.468021 1329704481.287135 561 496 644 457 473 570
7.468021 1329704481.296447 563 503 647 454 464 569
7.509564 1329704481.309195 559 507 654 451 455 565
7.509564 1329704481.312054 559 510 659 451 442 563
7.550784 1329704481.320506 557 512 664 456 430 557
7.550784 1329704481.328694 558 516 663 450 417 546
7.586671 1329704481.337088 549 521 661 442 407 532
7.586671 1329704481.345183 549 524 658 431 398 521
7.625617 1329704481.354729 544 522 654 423 387 506
7.625617 1329704481.362021 543 519 646 409 374 492
7.667568 1329704481.370498 538 517 640 390 367 485
7.667568 1329704481.378645 532 514 632 376 360 476
7.709163 1329704481.386907 527 510 622 370 354 464
7.709163 1329704481.395521 525 507 616 373 357 456
7.750795 1329704481.403716 519 503 613 372 361 454
7.750795 1329704481.412048 519 500 609 373 360 451
7.792480 1329704481.420353 520 499 604 380 362 442
7.792480 1329704481.428627 516 500 599 393 370 429
7.825242 1329704481.436780 518 499 598 403 382 422
7.825242 1329704481.445378 517 497 599 400 386 421
7.867437 1329704481.453715 517 495 599 392 384 420
7.867437 1329704481.462919 516 493 598 389 384 419
7.904753 1329704481.470318 512 493 598 387 386 417
7.904753 1329704481.478592 510 495 600 382 388 416
7.952353 1329704481.486862 511 497 601 373 387 414
7.952353 1329704481.495358 511 497 603 366 390 409
7.991652 1329704481.503790 511 498 606 365 392 404
7.991652 1329704481.520785 508 499 608 365 393 399
8.025808 1329704481.531597 510 500 609 364 391 396
8.025808 1329704481.536758 513 499 610 365 389 391
8.066781 1329704481.545041 515 496 611 370 387 386
8.066781 1329704481.553741 515 496 612 372 382 384
8.110078 1329704481.561818 516 498 611 373 376 384
8.110078 1329704481.570233 515 498 610 379 374 381
8.150096 1329704481.578521 515 497 608 383 373 379
8.150096 1329704481.586862 512 495 608 384 371 374
8.192003 1329704481.594962 512 493 607 383 371 368
8.192003 1329704481.603785 513 489 607 385 374 366
8.225132 1329704481.611789 513 487 606 386 374 365
8.225132 1329704481.620057 513 486 606 383 375 367
8.266994 1329704481.639738 513 485 606 379 374 370
8.266994 1329704481.644876 513 485 605 376 372 374
8.308434 1329704481.653751 512 486 604 374 372 376
8.308434 1329704481.661926 513 489 603 372 372 379
8.350139 1329704481.669969 511 491 602 368 372 381
8.350139 1329704481.678395 510 492 603 368 372 380
8.386401 1329704481.692077 513 493 604 372 376 375
8.426991 1329704481.694716 511 488 605 372 377 366
8.475929 1329704481.703590 512 484 602 372 374 367
8.508434 1329704481.712041 513 484 603 375 375 367
8.549605 1329704481.719996 511 484 604 367 376 367
8.593687 1329704481.728275 511 484 603 358 374 366
8.627388 1329704481.738426 510 485 604 360 378 365
8.666175 1329704481.750167 509 486 606 364 376 364
8.708948 1329704481.755326 510 487 605 361 375 363
8.749885 1329704481.761702 509 489 606 354 374 361
8.791057 1329704481.771692 510 489 606 351 373 359
8.824881 1329704481.778231 511 492 607 346 375 361
8.858020 1329704481.786689 510 495 605 339 375 354
8.895882 1329704481.798437 512 495 605 335 375 352
8.924997 1329704481.803476 511 494 605 331 374 353
8.924997 1329704481.812089 510 493 605 332 375 356
8.966582 1329704481.820097 510 494 605 333 377 359
8.966582 1329704481.828208 512 496 607 334 378 364
9.008102 1329704481.836660 513 498 608 338 377 364
9.008102 1329704481.844933 512 498 611 347 375 360
9.049880 1329704481.853320 511 498 612 357 369 358
9.049880 1329704481.861767 512 496 611 367 363 359
9.094116 1329704481.870340 513 495 609 379 364 360
9.094116 1329704481.879833 512 493 608 390 366 360
9.125172 1329704481.886568 510 492 607 399 364 363
9.125172 1329704481.896445 508 490 605 404 361 366
9.167949 1329704481.908467 506 488 600 408 359 368
9.167949 1329704481.911575 505 487 599 409 363 372
9.208601 1329704481.919851 504 486 598 411 366 374
9.208601 1329704481.928090 504 484 597 407 369 377
9.249928 1329704481.936588 505 483 596 404 371 381
9.249928 1329704481.950309 506 483 595 398 376 385
9.303897 1329704481.953195 505 484 594 389 377 388
9.303897 1329704481.961753 507 483 592 381 378 387
9.325046 1329704481.970243 506 484 590 373 380 390
9.325046 1329704481.977923 505 485 589 367 385 391
9.366324 1329704481.986438 502 489 590 364 389 391
9.366324 1329704481.999713 503 496 595 370 395 386
9.408649 1329704482.005000 505 496 600 381 401 382
9.408649 1329704482.016427 507 491 605 384 401 380
9.458538 1329704482.019513 507 491 611 380 396 380
9.458538 1329704482.027803 510 492 614 379 390 378
9.485050 1329704482.036407 512 490 616 375 388 379
9.485050 1329704482.044548 513 490 617 373 387 382
9.532101 1329704482.053370 512 491 616 375 383 385
9.532101 1329704482.061802 511 492 615 379 378 387
9.566405 1329704482.069831 512 491 612 379 375 388
9.566405 1329704482.078883 511 492 609 375 374 387
9.608110 1329704482.086147 510 493 607 370 374 387
9.608110 1329704482.095859 507 495 602 367 373 384
9.649831 1329704482.103188 505 495 601 359 374 377
9.649831 1329704482.113256 508 489 605 360 375 378
9.688923 1329704482.119827 507 486 605 369 375 383
9.688923 1329704482.129920 504 483 601 379 375 388
9.724312 1329704482.136653 502 478 598 384 377 395
9.724312 1329704482.146850 502 473 597 369 381 402
9.765797 1329704482.158055 499 468 602 358 382 411
9.765797 1329704482.161323 497 463 606 362 383 424
9.807471 1329704482.169948 498 457 609 371 386 440
9.807471 1329704482.177977 497 453 612 373 384 458
9.851831 1329704482.186544 499 450 616 375 380 476
9.851831 1329704482.201381 503 450 619 386 375 496
9.890596 1329704482.203583 506 454 621 386 371 511
9.890596 1329704482.211741 506 455 623 376 364 522
9.932006 1329704482.220042 505 457 623 367 352 530
9.932006 1329704482.228095 509 458 624 367 343 541
9.965060 1329704482.236636 513 463 629 372 340 550
9.965060 1329704482.250326 513 465 627 373 338 555
10.006584 1329704482.255236 513 465 622 359 332 558
10.006584 1329704482.261336 514 468 626 343 330 565
10.048176 1329704482.270076 520 481 625 333 322 565
10.091030 1329704482.278098 519 492 623 324 308 569
10.131469 1329704482.286372 515 504 615 331 287 549
10.164436 1329704482.295106 519 508 607 332 282 541
10.164436 1329704482.312052 520 510 602 340 282 535
10.206604 1329704482.320259 525 512 597 354 290 528
10.206604 1329704482.328153 523 517 590 360 296 521
10.248094 1329704482.336367 519 521 585 362 297 519
10.248094 1329704482.344575 516 527 582 365 300 510
10.294877 1329704482.353461 518 529 576 372 310 496
10.294877 1329704482.370536 520 531 572 372 320 485
10.323759 1329704482.378394 517 538 570 369 326 477
10.323759 1329704482.386743 517 548 569 365 329 463
10.364255 1329704482.394842 523 550 567 364 332 448
10.364255 1329704482.403006 527 552 565 373 341 436
10.406026 1329704482.411602 523 560 566 384 354 422
10.406026 1329704482.420167 522 562 569 394 369 396
10.456355 1329704482.428585 523 566 569 394 381 372
10.456355 1329704482.436737 526 572 569 390 388 351
10.489192 1329704482.444782 527 568 569 390 400 325
10.489192 1329704482.453051 528 557 569 400 417 302
10.530920 1329704482.461709 532 551 570 414 432 284
10.530920 1329704482.470126 537 552 571 423 443 266
10.574986 1329704482.482384 542 551 572 425 456 243
10.574986 1329704482.486445 550 550 570 420 470 220
10.606162 1329704482.494979 562 544 578 426 486 195
10.606162 1329704482.503411 573 541 590 443 498 166
10.647567 1329704482.511816 582 541 599 444 494 138
10.647567 1329704482.521583 593 542 606 418 491 104
10.689429 1329704482.534923 599 535 615 367 496 57
10.689429 1329704482.546941 624 533 634 312 508 19
10.731918 1329704482.569923 644 525 660 301 514 4
10.731918 1329704482.583523 666 528 667 336 509 4
10.756412 1329704482.586458 681 530 665 381 503 4
10.756412 1329704482.594722 684 531 663 405 489 4
10.793021 1329704482.603161 681 533 670 410 467 4
10.815346 1329704482.611397 683 534 671 425 447 4
10.815346 1329704482.619450 687 522 672 452 437 4
10.849447 1329704482.628091 690 509 671 459 424 4
10.888598 1329704482.636235 684 501 673 430 401 4
10.888598 1329704482.644652 690 494 669 410 371 4
10.906526 1329704482.653164 701 483 659 414 357 4
10.940334 1329704482.661347 700 470 652 415 364 4
10.940334 1329704482.669475 695 460 642 386 359 4
10.965325 1329704482.677809 686 446 636 360 351 4
11.007451 1329704482.686319 668 440 635 360 351 4
11.007451 1329704482.694647 644 436 627 364 347 11
11.048097 1329704482.703055 634 435 619 359 342 55
11.048097 1329704482.711428 621 431 616 357 339 90
11.090066 1329704482.719510 604 430 612 353 333 124
11.090066 1329704482.727726 589 430 608 337 319 162
11.131668 1329704482.738229 579 431 604 327 311 193
11.131668 1329704482.744576 577 439 598 323 309 225
11.165114 1329704482.753132 571 445 592 320 311 253
11.165114 1329704482.761450 558 450 587 321 316 274
11.206542 1329704482.769570 544 454 582 322 321 287
11.206542 1329704482.777837 538 458 578 328 329 305
11.248508 1329704482.786196 537 460 575 340 335 324
11.248508 1329704482.794623 529 460 572 356 340 339
11.290130 1329704482.805441 528 459 569 375 346 351
11.290130 1329704482.811321 522 462 566 386 353 362
11.328383 1329704482.819530 517 463 565 390 361 371
11.328383 1329704482.828043 519 463 565 392 369 383
11.364926 1329704482.835998 520 462 561 404 366 396
11.364926 1329704482.844561 520 463 566 412 380 407
11.407394 1329704482.853594 522 464 566 406 395 423
11.407394 1329704482.861356 518 464 571 396 408 435
11.447761 1329704482.869476 512 465 576 389 415 446
11.447761 1329704482.878024 508 465 583 388 416 457
11.505162 1329704482.886181 516 467 588 387 408 469
11.505162 1329704482.894582 523 470 593 382 405 487
11.531366 1329704482.902521 527 471 597 388 408 506
11.531366 1329704482.911433 532 475 602 401 409 522
11.564911 1329704482.919504 541 482 608 415 411 538
11.564911 1329704482.927303 538 486 613 426 407 545
11.605775 1329704482.936312 537 485 616 429 401 547
11.605775 1329704482.945034 546 486 618 432 401 549
11.647670 1329704482.955005 550 489 622 424 405 554
11.647670 1329704482.961173 550 492 625 414 406 561
11.689835 1329704482.969415 553 496 627 405 403 563
11.756543 1329704482.977574 551 499 630 388 392 566
11.770989 1329704482.986388 559 510 629 397 387 566
11.808798 1329704482.994427 553 521 629 411 384 560
11.847502 1329704483.004464 550 529 631 398 385 546
11.888890 1329704483.018982 545 536 630 384 377 523
11.914536 1329704483.031104 541 535 628 373 369 501
11.947384 1329704483.037404 540 535 626 370 362 492
11.989517 1329704483.044177 539 534 623 375 360 484
11.989517 1329704483.052687 539 532 621 383 359 476
12.030763 1329704483.060859 539 531 619 381 363 473
12.030763 1329704483.070252 535 529 620 376 362 469
12.064097 1329704483.082458 530 526 618 370 355 458
12.064097 1329704483.085670 530 521 617 370 352 448
12.105707 1329704483.094137 531 517 614 369 348 444
12.105707 1329704483.102781 529 515 610 370 344 442
12.148126 1329704483.110674 523 512 607 377 348 434
12.148126 1329704483.119575 518 507 604 386 357 423
12.189281 1329704483.127558 518 504 603 380 364 419
12.189281 1329704483.135799 515 500 601 375 363 423
12.230648 1329704483.144054 517 500 600 377 368 423
12.230648 1329704483.152470 515 502 602 380 378 423
12.263901 1329704483.160999 515 503 603 380 378 425
12.263901 1329704483.179373 512 503 601 380 372 422
12.305831 1329704483.186050 511 504 600 390 371 417
12.305831 1329704483.193998 510 503 600 403 374 415
12.347526 1329704483.202421 512 503 600 410 372 418
12.347526 1329704483.210815 510 506 601 411 372 420
12.389002 1329704483.219192 509 510 600 407 377 419
12.389002 1329704483.228947 508 512 601 400 379 413
12.430108 1329704483.235879 508 513 601 391 375 404
12.430108 1329704483.243959 509 515 602 384 376 395
12.471676 1329704483.252826 508 515 601 376 377 384
12.471676 1329704483.260848 509 513 601 371 378 377
12.504933 1329704483.269413 508 511 600 368 378 372
12.504933 1329704483.277634 508 509 599 371 378 367
12.546733 1329704483.286085 507 506 598 379 379 366
12.546733 1329704483.294026 506 502 596 386 378 368
12.588175 1329704483.302868 507 499 596 390 379 371
12.588175 1329704483.310841 508 499 597 399 381 374
12.630005 1329704483.319870 506 499 599 404 386 374
12.630005 1329704483.332500 507 497 601 401 389 372
12.671269 1329704483.337110 507 495 602 391 387 370
12.671269 1329704483.343959 506 493 603 380 383 366
12.704705 1329704483.353412 505 490 604 371 384 365
12.704705 1329704483.360813 509 489 604 362 385 368
12.754905 1329704483.368929 507 490 606 351 385 373
12.754905 1329704483.387595 505 492 608 349 385 374
12.789460 1329704483.394046 507 493 608 355 386 373
12.789460 1329704483.401978 509 493 610 362 386 373
12.831077 1329704483.410515 509 493 610 370 384 371
12.831077 1329704483.419743 510 493 610 378 381 371
12.864193 1329704483.427276 510 493 608 383 378 370
12.864193 1329704483.436053 510 492 607 381 377 369
12.904715 1329704483.444065 510 492 606 376 374 368
12.904715 1329704483.452488 509 492 605 373 374 364
12.954701 1329704483.460350 508 490 604 373 376 363
12.954701 1329704483.468872 508 488 602 369 378 365
12.988236 1329704483.477244 509 489 602 364 379 367
12.988236 1329704483.495875 509 490 602 361 381 368
13.029833 1329704483.502374 508 490 605 363 384 366
13.029833 1329704483.510150 509 489 605 365 383 366
13.071275 1329704483.518838 510 487 605 366 381 369
13.071275 1329704483.527196 511 488 606 366 379 371
13.114189 1329704483.535371 512 490 606 369 378 371
13.114189 1329704483.547077 511 490 606 373 377 370
13.146588 1329704483.552108 512 490 606 373 376 369
13.146588 1329704483.560215 511 492 605 372 375 370
13.188356 1329704483.568602 511 492 605 372 375 368
13.188356 1329704483.577018 510 493 604 374 376 368
13.229684 1329704483.585352 512 492 605 372 376 368
13.229684 1329704483.593563 511 492 605 372 375 369
13.271461 1329704483.602370 511 492 604 373 376 370
13.271461 1329704483.610019 510 492 604 374 376 369
13.305759 1329704483.618531 511 491 604 373 378 371
13.305759 1329704483.627034 510 491 604 372 377 370
13.349382 1329704483.635589 510 490 604 371 375 372
13.349382 1329704483.643549 509 490 604 375 375 374
13.387799 1329704483.657385 509 489 603 375 376 374
13.387799 1329704483.662378 508 488 604 372 376 376
13.429283 1329704483.668414 507 487 603 373 376 377
13.429283 1329704483.676706 504 486 603 374 379 377
13.483604 1329704483.685684 502 483 606 379 380 377
13.483604 1329704483.693622 500 480 608 381 380 380
13.504436 1329704483.701901 500 476 611 386 379 386
13.504436 1329704483.710433 500 472 611 394 375 395
13.545694 1329704483.718550 502 467 611 401 373 404
13.545694 1329704483.727546 497 463 612 403 373 412
13.588712 1329704483.735401 498 458 613 404 372 422
13.588712 1329704483.743352 497 454 615 408 369 435
13.639660 1329704483.752043 495 449 616 411 366 444
13.639660 1329704483.769745 495 444 617 413 363 456
13.675052 1329704483.776810 498 442 617 415 362 470
13.675052 1329704483.784977 494 439 617 417 359 478
13.711875 1329704483.793559 496 438 616 414 360 487
13.711875 1329704483.801767 500 438 618 405 360 503
13.744897 1329704483.810007 503 440 619 398 359 519
13.744897 1329704483.820019 502 445 618 391 354 531
13.786372 1329704483.826756 511 448 620 386 353 542
13.786372 1329704483.835086 513 452 622 382 352 554
13.827678 1329704483.843611 515 460 626 384 343 564
13.827678 1329704483.851726 515 466 625 398 331 568
13.869239 1329704483.859694 517 471 623 415 322 570
13.869239 1329704483.868376 527 479 619 432 312 575
13.911057 1329704483.876677 520 490 614 438 302 572
13.911057 1329704483.885036 518 500 607 434 297 557
13.945213 1329704483.893537 517 508 599 422 295 542
13.945213 1329704483.901666 521 513 591 402 298 528
13.991161 1329704483.910190 518 522 584 381 301 511
13.991161 1329704483.918397 517 529 577 366 301 493
14.031175 1329704483.926681 515 535 572 362 312 469
14.031175 1329704483.935013 513 540 566 367 324 445
14.068900 1329704483.943461 501 542 564 377 339 423
14.068900 1329704483.951692 517 542 562 392 352 405
14.110320 1329704483.960160 515 547 563 410 375 379
14.110320 1329704483.968515 520 549 567 424 399 346
14.155108 1329704483.982442 523 552 572 417 402 321
14.155108 1329704483.984955 523 553 576 394 394 297
14.186284 1329704483.993380 525 554 577 374 397 271
14.186284 1329704484.001530 531 553 578 366 410 243
14.227338 1329704484.009947 538 552 583 360 428 215
14.227338 1329704484.018222 544 552 590 347 437 191
14.268875 1329704484.029777 552 552 597 340 442 164
14.268875 1329704484.034657 562 549 604 340 449 132
14.310525 1329704484.043419 578 544 611 343 452 102
14.310525 1329704484.051357 594 540 617 340 451 79
14.352755 1329704484.059498 608 535 623 335 447 62
14.352755 1329704484.067708 619 528 633 336 447 45
14.386599 1329704484.075843 633 522 641 337 449 27
14.386599 1329704484.084440 650 522 650 329 448 18
14.428243 1329704484.092562 659 515 660 326 440 4
14.428243 1329704484.101602 677 504 666 334 431 4
14.472229 1329704484.108938 684 494 671 340 420 4
14.472229 1329704484.118732 695 488 673 327 404 4
14.511898 1329704484.125925 703 482 677 303 395 4
14.511898 1329704484.134169 709 480 679 293 396 4
14.544576 1329704484.142703 710 476 679 299 398 4
14.544576 1329704484.150744 702 472 676 301 392 4
14.588955 1329704484.161196 700 472 671 294 379 4
14.588955 1329704484.167654 683 467 665 299 365 7
14.628180 1329704484.177583 679 463 658 330 359 23
14.628180 1329704484.188939 669 463 651 371 354 45
14.675929 1329704484.192427 649 461 640 401 342 69
14.675929 1329704484.200672 631 460 627 415 333 91
14.710749 1329704484.209158 612 458 615 426 327 107
14.710749 1329704484.217462 610 457 607 433 325 127
14.744425 1329704484.230686 598 454 602 435 322 147
14.744425 1329704484.233831 586 451 596 429 315 168
14.786358 1329704484.242519 571 448 591 417 309 188
14.786358 1329704484.250625 572 449 583 402 306 208
14.828897 1329704484.259016 557 445 580 387 306 228
14.828897 1329704484.267625 545 444 576 371 310 246
14.869095 1329704484.280712 543 445 572 354 314 265
14.869095 1329704484.283772 533 446 571 343 322 286
14.906104 1329704484.292473 528 448 569 336 332 305
14.906104 1329704484.302301 523 451 567 335 341 321
14.944408 1329704484.308740 521 453 566 336 350 339
14.944408 1329704484.317994 520 453 566 339 359 356
14.985989 1329704484.329089 520 456 567 353 372 373
14.985989 1329704484.333936 523 459 568 368 380 388
15.030402 1329704484.342268 522 461 569 382 387 402
15.030402 1329704484.350610 521 463 570 395 392 413
15.066515 1329704484.358775 523 463 571 402 400 423
15.066515 1329704484.367235 526 461 573 407 406 428
15.111090 1329704484.375430 526 458 575 407 411 441
15.111090 1329704484.383676 526 457 581 406 421 459
15.149049 1329704484.391861 533 457 584 405 433 473
15.149049 1329704484.402060 543 459 591 404 442 487
15.186133 1329704484.408393 543 459 597 404 450 503
15.186133 1329704484.416678 543 463 604 404 450 517
15.227517 1329704484.425223 550 466 610 403 446 524
15.227517 1329704484.439619 561 466 612 397 435 533
15.267384 1329704484.443333 560 465 615 392 429 543
15.267384 1329704484.449886 561 467 616 386 427 557
15.305789 1329704484.458237 569 470 618 379 422 572
15.305789 1329704484.466577 571 474 621 374 421 586
15.344789 1329704484.479079 570 477 623 374 415 591
15.344789 1329704484.500747 576 480 626 376 414 597
15.385714 1329704484.522353 581 483 628 380 410 603
15.385714 1329704484.533196 586 484 630 384 405 612
15.427454 1329704484.545622 587 488 632 390 405 624
15.427454 1329704484.549971 590 495 635 393 406 632
15.469371 1329704484.558205 590 501 637 393 401 631
15.469371 1329704484.567511 587 504 639 392 397 627
15.504633 1329704484.574795 584 506 640 385 388 619
15.504633 1329704484.583360 584 505 639 378 380 605
15.549199 1329704484.591199 585 508 638 374 382 599
15.549199 1329704484.607988 582 511 639 370 379 597
15.585599 1329704484.609208 572 510 636 365 363 585
15.585599 1329704484.616310 574 514 632 369 357 572
15.627865 1329704484.624893 574 518 629 376 360 564
15.627865 1329704484.653323 570 523 629 374 355 559
15.669155 1329704484.666753 561 527 626 371 339 545
15.669155 1329704484.675039 555 527 620 380 330 522
15.710610 1329704484.683394 556 529 615 387 335 504
15.710610 1329704484.691561 553 529 612 377 338 493
15.751814 1329704484.700021 544 529 609 364 335 479
15.751814 1329704484.717734 534 526 605 357 332 456
15.785458 1329704484.740196 533 523 600 353 331 440
15.785458 1329704484.751011 533 520 596 342 336 431
15.826443 1329704484.758831 529 517 592 329 340 426
15.826443 1329704484.766823 523 515 592 329 345 421
15.868462 1329704484.775466 520 512 593 340 352 411
15.868462 1329704484.784041 519 511 593 347 359 403
15.909960 1329704484.797104 518 511 594 343 363 400
15.909960 1329704484.802370 514 512 593 344 360 396
15.951544 1329704484.808649 513 510 594 351 361 389
15.951544 1329704484.816996 511 509 594 356 361 381
15.985127 1329704484.825456 509 509 594 353 358 380
15.985127 1329704484.833624 507 509 594 355 357 380
16.026517 1329704484.842066 505 509 594 366 359 377
16.026517 1329704484.850820 506 510 596 379 365 374
16.069787 1329704484.858592 502 510 597 381 368 373
16.069787 1329704484.866808 501 513 606 393 365 372
16.109570 1329704484.875395 501 513 607 423 360 372
16.109570 1329704484.883685 497 508 602 435 359 368
16.151359 1329704484.892019 498 504 599 429 363 362
16.151359 1329704484.905720 496 500 598 410 365 361
16.184561 1329704484.911504 496 498 596 384 365 362
16.184561 1329704484.917665 497 496 594 363 371 360
16.230875 1329704484.925184 496 496 594 346 381 356
16.230875 1329704484.933349 495 496 597 336 383 354
16.267983 1329704484.941746 494 497 600 331 381 353
16.267983 1329704484.949990 493 497 600 339 380 355
16.308018 1329704484.958909 497 496 598 351 384 359
16.308018 1329704484.967232 497 495 598 359 384 361
16.351019 1329704484.975654 495 496 600 368 387 363
16.351019 1329704484.983775 496 496 598 378 389 363
16.384688 1329704484.991992 497 496 597 385 391 363
16.384688 1329704485.002441 497 498 600 381 392 358
16.426712 1329704485.009098 498 499 603 375 391 355
16.426712 1329704485.019612 498 500 605 377 390 351
16.467719 1329704485.026071 501 499 603 380 390 349
16.467719 1329704485.034287 500 496 603 378 391 348
16.509560 1329704485.042401 499 493 604 378 390 350
16.509560 1329704485.061029 500 492 605 380 389 352
16.550625 1329704485.069356 502 492 605 383 391 353
16.550625 1329704485.075839 502 492 607 382 394 351
16.584838 1329704485.084209 502 491 608 380 390 349
16.584838 1329704485.092728 502 491 609 374 387 350
16.626240 1329704485.100457 503 491 608 372 385 351
16.626240 1329704485.109371 503 491 608 369 386 352
16.682412 1329704485.117929 503 492 607 369 385 352
16.682412 1329704485.126097 504 492 607 369 386 353
16.709711 1329704485.134702 504 492 607 368 385 353
16.709711 1329704485.143100 504 491 606 368 384 353
16.750723 1329704485.150841 504 491 607 367 381 354
16.750723 1329704485.159435 505 492 606 368 379 355
16.794603 1329704485.171253 505 493 604 372 381 355
16.794603 1329704485.176168 504 491 603 374 382 355
16.823859 1329704485.184665 504 490 604 374 383 355
16.823859 1329704485.193528 503 489 604 374 383 355
16.873829 1329704485.201250 504 490 604 373 381 357
16.873829 1329704485.211523 505 492 603 373 382 357
16.909053 1329704485.218027 504 492 603 372 384 356
16.909053 1329704485.226262 503 490 604 371 381 356
16.957890 1329704485.234946 504 487 604 372 381 358
16.957890 1329704485.243155 506 488 604 373 382 362
16.984214 1329704485.251266 506 490 605 376 385 363
16.984214 1329704485.259296 505 491 606 377 384 363
17.025603 1329704485.267767 506 491 606 377 381 364
17.025603 1329704485.275679 507 490 606 375 378 363
17.072197 1329704485.284424 508 490 606 372 378 363
17.072197 1329704485.292471 507 490 606 372 378 365
17.108668 1329704485.300911 507 490 605 372 376 364
17.108668 1329704485.309020 507 491 605 374 377 365
17.150617 1329704485.317479 508 491 606 375 377 365
17.150617 1329704485.325337 507 490 606 375 376 367
17.192169 1329704485.334272 508 491 605 376 376 369
17.192169 1329704485.342318 506 490 605 378 375 369
17.225271 1329704485.350558 507 490 605 379 375 369
17.225271 1329704485.359041 507 490 605 377 377 371
17.266819 1329704485.367573 505 492 606 375 373 370
17.266819 1329704485.375699 501 493 606 374 367 369
17.313443 1329704485.384461 500 495 607 371 356 368
17.313443 1329704485.392855 511 499 607 371 349 364
17.347092 1329704485.400884 500 500 603 381 348 359
17.347092 1329704485.411189 496 499 600 400 360 353
17.384215 1329704485.417681 480 498 599 419 368 355
17.384215 1329704485.425588 477 492 598 432 369 355
17.425658 1329704485.434017 484 483 599 439 371 350
17.425658 1329704485.442388 480 468 603 426 371 348
17.477145 1329704485.458517 476 443 604 403 380 354
17.477145 1329704485.470243 481 421 610 380 385 385
17.508389 1329704485.485054 486 403 620 362 385 420
17.508389 1329704485.500204 491 390 627 344 375 447
17.550222 1329704485.502711 490 377 631 327 363 465
17.550222 1329704485.509595 494 371 630 321 352 487
17.600411 1329704485.516901 497 369 628 332 350 515
17.600411 1329704485.525880 496 371 631 357 355 546
17.625095 1329704485.533292 527 379 629 393 347 596
17.625095 1329704485.542048 541 398 629 433 338 637
17.665634 1329704485.550033 544 420 623 454 315 665
17.665634 1329704485.558588 541 445 612 462 299 684
17.709424 1329704485.573405 545 465 602 460 305 685
17.709424 1329704485.575273 552 484 595 450 322 670
17.748935 1329704485.583570 545 503 593 428 338 643
17.748935 1329704485.592458 546 519 590 403 349 614
17.803818 1329704485.600610 560 536 586 378 363 591
17.803818 1329704485.609068 559 551 583 356 373 559
17.824016 1329704485.617353 563 565 582 342 384 528
17.824016 1329704485.628731 574 572 584 345 399 501
17.865562 1329704485.633867 577 584 588 367 417 477
17.865562 1329704485.642624 582 595 593 396 419 447
17.912333 1329704485.650570 582 602 599 420 416 405
17.912333 1329704485.659172 585 609 604 431 405 358
17.948841 1329704485.667939 589 610 613 440 391 314
17.948841 1329704485.685595 600 608 616 428 376 279
17.992217 1329704485.692276 601 609 616 402 367 249
17.992217 1329704485.700708 597 610 617 372 364 214
18.031841 1329704485.708771 598 610 615 339 359 174
18.031841 1329704485.717228 611 606 612 307 363 127
18.067424 1329704485.725714 625 595 611 293 375 74
18.067424 1329704485.733671 631 580 615 315 395 25
18.106697 1329704485.742120 645 563 620 353 415 4
18.106697 1329704485.750705 669 550 624 380 423 4
18.149496 1329704485.758645 681 535 632 389 421 4
18.149496 1329704485.767432 689 519 640 391 408 4
18.191219 1329704485.775284 713 504 643 380 398 4
18.191219 1329704485.783234 738 493 647 351 390 4
18.224716 1329704485.801900 739 477 651 318 380 4
18.224716 1329704485.808767 745 464 652 309 370 4
18.266495 1329704485.816495 744 457 649 301 365 4
18.266495 1329704485.825511 743 452 649 281 368 4
18.299893 1329704485.833473 715 453 650 279 374 4
18.325204 1329704485.841401 693 456 645 306 371 6
18.404621 1329704485.851358 671 449 638 325 363 27
18.404621 1329704485.858821 667 442 630 331 354 57
18.404621 1329704485.866725 660 437 623 345 358 85
18.404621 1329704485.875504 643 429 618 360 370 104
18.455249 1329704485.883487 628 423 614 357 374 126
18.455249 1329704485.891276 624 416 613 344 381 154
18.491056 1329704485.899596 609 408 611 339 386 178
18.491056 1329704485.908532 598 402 610 346 388 204
18.524179 1329704485.916539 591 402 611 352 387 237
18.524179 1329704485.924899 583 406 612 357 385 274
18.565990 1329704485.933258 577 408 611 369 378 299
18.565990 1329704485.941296 575 409 610 382 364 321
18.607683 1329704485.949520 572 407 606 395 351 344
18.607683 1329704485.958501 561 409 601 407 345 373
18.649854 1329704485.966281 555 412 596 418 338 402
18.649854 1329704485.974877 550 416 592 427 335 430
18.685717 1329704485.983326 542 422 589 432 335 457
18.685717 1329704485.991144 538 430 585 436 344 480
18.733433 1329704485.999563 539 437 584 440 354 499
18.733433 1329704486.008417 538 441 586 444 366 513
18.765974 1329704486.016469 538 443 587 443 376 528
18.765974 1329704486.025114 541 449 590 439 389 544
18.807267 1329704486.035227 542 455 594 430 398 560
18.807267 1329704486.041137 545 461 598 423 398 570
18.849547 1329704486.049578 546 466 599 416 396 580
18.849547 1329704486.058125 553 468 601 412 400 587
18.898653 1329704486.066342 560 472 603 414 404 595
18.898653 1329704486.074626 558 479 606 423 403 601
18.924258 1329704486.084634 556 481 608 427 405 604
18.924258 1329704486.090919 558 481 609 420 407 605
18.966045 1329704486.101162 561 489 613 415 417 611
18.966045 1329704486.108210 553 494 618 408 420 609
19.028479 1329704486.116163 552 497 620 399 412 594
19.028479 1329704486.124599 558 502 622 388 413 586
19.048850 1329704486.133110 556 509 623 371 415 580
19.048850 1329704486.141443 548 519 625 355 410 572
19.090589 1329704486.159022 549 525 625 348 403 559
19.090589 1329704486.170465 553 533 625 349 402 546
19.127590 1329704486.175898 548 539 625 350 396 531
19.127590 1329704486.182994 537 541 623 352 383 509
19.165551 1329704486.191252 536 539 619 362 376 484
19.165551 1329704486.199305 544 538 615 368 379 474
19.207286 1329704486.218063 542 536 614 360 381 471
19.207286 1329704486.225041 535 533 613 351 376 462
19.248637 1329704486.232602 527 529 612 352 370 442
19.248637 1329704486.241916 525 523 609 358 368 425
19.290639 1329704486.249706 531 520 606 357 366 419
19.290639 1329704486.257346 532 518 605 352 366 420
19.330773 1329704486.272562 525 515 605 358 369 414
19.330773 1329704486.275053 524 514 606 365 371 404
19.364726 1329704486.282609 522 514 606 365 369 396
19.364726 1329704486.291377 523 512 605 363 363 394
19.407954 1329704486.299593 519 510 604 368 360 392
19.407954 1329704486.307445 518 508 603 382 362 386
19.448390 1329704486.315869 516 506 602 395 363 381
19.448390 1329704486.324682 512 505 601 391 364 379
19.494257 1329704486.332586 513 503 600 383 363 382
19.494257 1329704486.342002 511 500 599 381 367 381
19.523876 1329704486.349543 510 499 600 386 374 380
19.523876 1329704486.357173 509 499 602 391 379 382
19.564013 1329704486.365910 507 499 603 389 378 387
19.564013 1329704486.375778 507 500 604 392 377 393
19.611086 1329704486.382415 505 500 606 398 380 394
19.611086 1329704486.390980 503 499 608 406 382 391
19.648276 1329704486.399687 503 497 609 408 377 392
19.648276 1329704486.407150 504 497 608 410 375 393
19.689651 1329704486.415819 503 497 609 408 379 394
19.689651 1329704486.434857 502 496 611 401 381 393
19.731386 1329704486.440847 502 495 611 387 375 397
19.731386 1329704486.449412 504 496 608 374 371 398
19.764977 1329704486.457668 501 497 607 364 373 393
19.764977 1329704486.465494 502 497 607 357 376 384
19.806262 1329704486.473963 503 498 608 353 374 379
19.806262 1329704486.482548 501 499 610 357 369 379
19.847991 1329704486.490741 503 500 608 368 365 382
19.847991 1329704486.499400 504 500 606 379 368 381
19.890504 1329704486.507530 503 499 606 384 372 378
19.890504 1329704486.515462 503 497 604 380 366 375
19.931375 1329704486.524019 504 495 600 373 363 375
19.931375 1329704486.532581 504 495 598 369 367 373
19.964747 1329704486.540642 503 496 598 366 372 368
19.964747 1329704486.551574 502 498 598 363 374 364
20.005748 1329704486.557428 501 499 597 363 374 362
20.005748 1329704486.565839 502 498 597 371 377 362
20.048524 1329704486.574027 500 494 596 386 382 361
20.048524 1329704486.593539 502 491 596 396 386 361
20.090182 1329704486.606906 502 489 597 394 388 364
20.090182 1329704486.609485 502 489 599 389 391 365
20.132481 1329704486.615798 503 491 603 386 392 363
20.132481 1329704486.623700 503 491 606 381 391 360
20.164354 1329704486.632324 504 489 607 373 387 358
20.164354 1329704486.640806 505 488 606 367 385 361
20.206010 1329704486.652061 505 488 607 371 386 362
20.206010 1329704486.657595 505 488 607 377 387 363
20.266105 1329704486.665841 506 489 607 379 383 366
20.266105 1329704486.673889 505 490 606 380 381 363
20.289310 1329704486.682239 505 490 605 377 382 362
20.289310 1329704486.692709 505 489 607 375 384 358
20.325237 1329704486.704209 505 487 608 372 384 357
20.325237 1329704486.720285 506 487 607 367 381 360
20.375233 1329704486.741594 507 486 607 368 379 362
20.375233 1329704486.753444 508 487 608 369 379 364
20.406101 1329704486.766924 508 487 608 374 376 365
20.406101 1329704486.774162 507 487 606 377 373 365
20.449089 1329704486.781991 507 487 604 376 373 366
20.449089 1329704486.790680 506 487 603 377 376 365
20.500172 1329704486.799117 507 487 603 376 380 364
20.500172 1329704486.806949 506 487 604 372 379 363
20.530576 1329704486.815306 506 487 604 368 377 364
20.530576 1329704486.824015 506 486 603 365 377 364
20.574982 1329704486.832098 507 486 604 366 379 366
20.574982 1329704486.840540 508 487 604 369 378 369
20.605592 1329704486.859334 507 488 604 372 376 371
20.605592 1329704486.881578 507 489 603 373 376 370
20.647291 1329704486.893079 506 489 602 376 377 369
20.647291 1329704486.898850 505 490 603 376 380 368
20.699040 1329704486.907028 505 490 601 372 378 368
20.699040 1329704486.915615 502 490 600 369 378 366
20.730324 1329704486.923629 499 488 600 367 380 367
20.730324 1329704486.931936 497 485 599 365 384 368
20.764332 1329704486.941362 496 481 599 364 388 369
20.764332 1329704486.948599 489 472 601 367 389 372
20.805593 1329704486.957676 484 461 603 372 390 376
20.805593 1329704486.965459 493 451 605 378 393 388
20.847183 1329704486.974646 494 444 609 378 400 408
20.847183 1329704486.981961 490 439 614 374 400 425
20.888788 1329704486.998677 494 436 619 365 393 441
20.888788 1329704487.000743 499 432 622 355 384 461
20.931910 1329704487.006790 504 432 625 352 382 480
20.931910 1329704487.015535 507 432 629 362 374 497
20.971653 1329704487.025446 515 431 631 375 363 517
20.971653 1329704487.031756 525 437 632 390 355 541
21.005067 1329704487.040425 527 446 633 402 348 559
21.005067 1329704487.048995 527 454 634 414 342 567
21.045836 1329704487.056773 530 460 634 419 339 577
21.045836 1329704487.065438 539 470 633 419 340 588
21.087658 1329704487.073691 530 478 634 413 335 591
21.087658 1329704487.081951 525 482 632 402 330 585
21.128955 1329704487.090470 526 484 629 394 327 577
21.128955 1329704487.108266 529 487 628 378 318 571
21.170627 1329704487.115448 526 494 624 354 299 560
21.170627 1329704487.123683 522 500 614 332 282 545
21.204025 1329704487.132211 524 509 601 323 278 533
21.204025 1329704487.140253 521 518 593 327 282 523
21.245753 1329704487.148813 520 523 585 345 292 507
21.245753 1329704487.161530 519 528 578 373 301 488
21.287066 1329704487.165375 524 534 571 400 309 477
21.287066 1329704487.173781 526 540 566 420 317 465
21.329179 1329704487.182437 523 545 562 431 325 447
21.329179 1329704487.190693 524 548 557 435 333 427
21.370177 1329704487.198789 524 550 554 438 350 402
21.370177 1329704487.207162 519 552 551 436 369 380
21.412482 1329704487.215574 541 548 553 434 388 356
21.412482 1329704487.223899 536 554 555 428 413 332
21.445863 1329704487.232366 542 556 558 413 424 310
21.445863 1329704487.240351 543 558 563 399 438 287
21.484011 1329704487.248767 548 560 568 391 455 259
21.484011 1329704487.256992 559 558 572 392 474 224
21.528884 1329704487.265498 572 556 578 394 486 188
21.528884 1329704487.273881 584 555 586 388 484 156
21.570240 1329704487.282498 596 552 593 386 482 128
21.570240 1329704487.290730 613 547 597 390 477 98
21.603761 1329704487.299123 624 540 606 397 472 71
21.603761 1329704487.307436 643 536 613 394 462 43
21.646066 1329704487.315583 663 528 623 393 461 15
21.646066 1329704487.323997 678 517 636 412 468 4
21.687851 1329704487.332356 695 507 644 427 460 4
21.687851 1329704487.340771 708 494 652 411 438 4
21.730865 1329704487.359689 728 481 659 423 426 4
21.730865 1329704487.365620 733 468 665 468 411 4
21.764137 1329704487.374048 731 457 664 516 373 4
21.764137 1329704487.382333 727 450 657 533 335 4
21.804490 1329704487.390899 726 440 648 510 301 4
21.804490 1329704487.398858 721 428 642 470 282 4
21.846063 1329704487.412621 696 411 639 399 262 4
21.846063 1329704487.416461 719 421 630 329 258 4
21.887976 1329704487.424094 692 418 623 276 254 19
21.887976 1329704487.433619 680 422 621 260 277 40
21.932490 1329704487.441149 653 428 620 262 295 74
21.932490 1329704487.448916 627 433 618 267 294 113
21.970636 1329704487.457550 618 436 613 293 296 145
21.970636 1329704487.465688 609 445 605 331 305 174
22.004465 1329704487.474291 588 450 599 362 311 193
22.004465 1329704487.482376 569 449 593 377 308 207
22.054552 1329704487.491098 560 444 586 378 302 228
22.054552 1329704487.498743 553 441 579 368 305 255
22.088947 1329704487.507508 548 442 572 358 317 280
22.088947 1329704487.515603 544 444 570 350 330 299
22.137708 1329704487.523990 544 443 568 346 344 312
22.137708 1329704487.532445 539 440 566 351 351 332
22.170914 1329704487.540897 531 443 565 358 361 348
22.170914 1329704487.549126 535 442 564 361 371 370
22.204462 1329704487.569460 533 442 566 360 373 388
22.204462 1329704487.573972 532 443 570 357 370 412
22.245507 1329704487.582330 529 446 574 357 373 432
22.245507 1329704487.590682 531 448 578 357 381 449
22.290887 1329704487.599417 535 447 581 354 386 467
22.290887 1329704487.617813 542 447 585 354 387 492
22.328874 1329704487.624249 543 451 591 361 393 518
22.328874 1329704487.632026 550 456 596 371 397 542
22.370764 1329704487.640806 557 461 601 383 401 564
22.370764 1329704487.649077 565 469 607 394 403 586
22.412559 1329704487.657448 569 478 612 407 405 604
22.412559 1329704487.665665 576 485 616 414 396 612
22.452993 1329704487.674239 582 496 623 418 388 613
22.452993 1329704487.681859 588 505 630 423 382 612
22.503763 1329704487.690635 593 515 633 430 371 609
22.503763 1329704487.698926 587 523 637 437 365 607
22.529373 1329704487.707418 585 528 637 442 358 601
22.529373 1329704487.724232 591 531 638 451 355 593
22.570917 1329704487.747929 585 536 640 459 358 584
22.570917 1329704487.750694 581 536 638 458 366 576
22.609471 1329704487.756907 582 535 636 452 370 564
22.609471 1329704487.765469 577 534 638 450 373 554
22.645654 1329704487.774275 576 531 635 442 371 547
22.645654 1329704487.781976 576 525 631 428 365 537
22.687352 1329704487.797811 567 523 628 417 364 529
22.687352 1329704487.802590 567 525 625 409 371 525
22.729115 1329704487.807673 561 526 624 397 373 521
22.729115 1329704487.815488 558 525 620 384 364 508
22.770875 1329704487.824447 550 525 616 377 358 491
22.770875 1329704487.832130 547 527 613 373 363 481
22.803982 1329704487.841489 544 528 609 366 363 480
22.803982 1329704487.848713 538 530 604 362 359 473
22.845865 1329704487.858521 532 534 603 361 361 460
22.845865 1329704487.865244 528 534 601 361 369 446
22.887148 1329704487.873769 525 529 598 354 367 431
22.887148 1329704487.882058 524 523 596 348 358 419
22.928946 1329704487.890336 521 522 601 365 352 409
22.928946 1329704487.898701 523 520 604 396 355 404
22.971713 1329704487.906812 520 514 596 405 354 403
22.971713 1329704487.915529 515 510 596 399 355 401
23.012551 1329704487.928551 511 508 599 395 358 391
23.012551 1329704487.939783 514 499 594 390 367 379
23.045219 1329704487.954574 507 501 592 355 366 364
23.045219 1329704487.968519 512 499 606 331 358 357
23.087254 1329704487.983011 513 490 608 346 343 358
23.087254 1329704487.990037 514 489 602 345 332 358
23.128839 1329704487.998532 508 482 603 346 338 359
23.128839 1329704488.013770 504 494 601 365 358 357
23.173715 1329704488.028444 507 495 597 377 387 358
23.173715 1329704488.031572 500 492 594 380 408 360
23.203730 1329704488.039805 499 488 598 379 424 356
23.203730 1329704488.048153 506 484 604 382 426 358
23.246454 1329704488.056667 507 488 607 384 422 354
23.246454 1329704488.064700 509 485 613 380 415 356
23.291316 1329704488.073162 505 480 617 373 407 356
23.291316 1329704488.081393 509 480 619 362 394 361
23.327929 1329704488.089567 520 476 620 356 378 361
23.327929 1329704488.099931 520 481 618 353 366 359
23.370648 1329704488.106617 514 481 617 351 365 362
23.370648 1329704488.117546 505 483 615 349 363 368
23.405903 1329704488.123065 508 487 613 345 351 376
23.405903 1329704488.131162 514 492 607 346 337 372
23.445104 1329704488.139734 510 491 600 350 334 373
23.445104 1329704488.147781 509 495 595 362 340 372
23.487085 1329704488.156392 511 497 592 370 352 369
23.487085 1329704488.165469 507 496 594 373 368 364
23.531078 1329704488.173053 510 495 593 372 380 361
23.531078 1329704488.181055 506 490 593 371 388 356
23.570084 1329704488.189607 504 490 598 374 396 360
23.570084 1329704488.197725 506 488 600 373 397 366
23.611411 1329704488.206097 514 493 601 372 393 370
23.611411 1329704488.214512 516 492 601 377 387 370
23.644830 1329704488.222852 517 492 601 382 381 369
23.644830 1329704488.230695 514 493 603 381 377 372
23.686722 1329704488.239217 510 489 605 380 372 372
23.686722 1329704488.247332 511 491 605 379 372 372
23.728240 1329704488.255536 514 491 604 377 374 372
23.728240 1329704488.263835 511 489 605 381 376 372
23.778424 1329704488.272289 510 490 607 380 378 371
23.778424 1329704488.280395 509 490 608 376 376 369
23.815060 1329704488.288817 510 491 606 372 378 368
23.815060 1329704488.297329 508 489 604 370 380 370
23.844871 1329704488.305556 508 489 603 376 380 372
23.844871 1329704488.313862 508 489 602 380 384 373
23.886113 1329704488.322048 507 488 603 380 389 371
23.886113 1329704488.330167 508 488 604 379 391 369
23.927840 1329704488.338566 507 483 603 379 394 366
23.927840 1329704488.347241 504 480 603 376 395 367
23.969631 1329704488.356684 503 477 605 372 386 370
23.969631 1329704488.363525 504 470 606 374 374 378
24.011367 1329704488.372206 501 468 601 379 367 388
24.011367 1329704488.380401 496 468 592 383 372 391
24.044508 1329704488.388526 494 459 587 369 381 394
24.044508 1329704488.397150 497 454 591 356 388 409
24.086012 1329704488.405421 495 453 594 351 394 424
24.086012 1329704488.413771 496 450 600 355 405 431
24.127338 1329704488.422242 499 444 606 361 414 436
24.127338 1329704488.430079 504 436 611 366 412 447
24.168862 1329704488.438590 505 430 615 373 408 463
24.168862 1329704488.447065 503 427 622 402 408 476
24.210174 1329704488.455456 507 426 629 433 412 485
24.210174 1329704488.463678 513 427 637 450 412 495
24.243596 1329704488.472210 520 428 641 452 403 505
24.243596 1329704488.480301 523 427 643 440 394 522
24.284811 1329704488.488653 540 437 643 425 384 540
24.284811 1329704488.497161 540 441 645 402 369 556
24.326374 1329704488.505484 548 445 643 378 360 560
24.326374 1329704488.513705 557 450 638 352 350 567
24.367950 1329704488.522080 563 458 635 336 341 576
24.367950 1329704488.530173 565 470 632 325 329 583
24.414627 1329704488.538604 566 483 628 326 316 582
24.414627 1329704488.547033 568 493 621 341 307 574
24.451125 1329704488.560566 570 502 615 357 300 562
24.451125 1329704488.563328 564 511 607 372 289 546
24.484803 1329704488.572446 559 517 596 383 281 531
24.484803 1329704488.579987 559 523 585 394 279 520
24.531354 1329704488.588321 554 533 575 399 277 510
24.531354 1329704488.596724 544 539 565 392 277 496
24.563791 1329704488.605738 534 545 552 382 286 476
24.563791 1329704488.613340 539 546 547 377 305 457
24.616230 1329704488.621742 535 553 542 373 326 434
24.616230 1329704488.629848 527 560 541 372 347 404
24.651070 1329704488.638453 525 567 544 374 372 375
24.651070 1329704488.646584 524 575 547 383 397 340
24.683951 1329704488.655033 527 577 551 390 416 297
24.683951 1329704488.663284 534 574 556 394 435 254
24.725739 1329704488.671746 546 568 565 397 448 219
24.725739 1329704488.681444 556 562 576 397 455 186
24.767553 1329704488.688161 569 554 587 398 453 154
24.767553 1329704488.696681 587 544 595 402 454 126
24.810959 1329704488.705023 600 538 606 402 458 101
24.810959 1329704488.722012 617 530 618 389 457 82
24.851103 1329704488.730001 636 520 629 365 454 61
24.851103 1329704488.740074 656 509 639 356 450 42
24.884778 1329704488.746654 663 500 651 375 448 28
24.884778 1329704488.754882 680 495 660 394 439 17
24.926925 1329704488.769770 682 491 666 388 408 17
24.926925 1329704488.781028 695 486 669 392 386 10
24.972581 1329704488.788022 700 480 673 409 377 4
24.972581 1329704488.796539 700 472 672 410 359 4
25.009822 1329704488.804887 700 466 666 379 337 4
25.009822 1329704488.813443 712 458 664 358 327 4
25.051612 1329704488.821786 710 446 661 376 331 4
25.051612 1329704488.840668 704 432 655 403 326 4
25.085940 1329704488.847211 696 424 647 408 317 4
25.085940 1329704488.855137 673 418 641 387 300 4
25.135618 1329704488.863564 688 410 633 377 289 24
25.135618 1329704488.871886 669 408 626 385 292 54
25.171611 1329704488.880347 642 407 621 391 288 86
25.171611 1329704488.889798 622 407 615 381 274 117
25.209549 1329704488.896357 609 407 608 370 259 152
25.209549 1329704488.905105 601 409 598 372 256 187
25.251410 1329704488.913242 586 416 588 370 260 210
25.251410 1329704488.921574 573 420 579 355 264 226
25.284876 1329704488.929999 564 419 570 334 272 242
25.284876 1329704488.938077 543 419 564 323 288 259
25.325599 1329704488.946550 549 424 558 320 306 276
25.325599 1329704488.955231 528 421 547 335 314 296
25.368455 1329704488.963665 528 422 549 363 330 316
25.368455 1329704488.971533 529 424 549 370 347 337
25.411168 1329704488.980705 527 428 550 366 362 355
25.411168 1329704488.988758 527 428 551 368 380 368
25.450875 1329704488.997460 522 429 553 372 393 383
25.450875 1329704489.005572 521 432 561 370 399 403
25.484449 1329704489.014157 527 435 566 363 400 424
25.484449 1329704489.022209 524 439 569 360 403 443
25.525869 1329704489.030694 522 442 571 366 404 455
25.525869 1329704489.039094 525 445 576 372 407 465
25.567272 1329704489.058713 528 447 581 379 410 480
25.567272 1329704489.065108 534 448 587 390 417 497
25.616084 1329704489.072892 537 450 593 400 427 514
25.616084 1329704489.080871 545 454 598 409 430 529
25.650910 1329704489.088911 553 458 604 418 433 542
25.650910 1329704489.099555 558 462 609 426 437 554
25.693051 1329704489.115176 556 465 612 426 434 562
25.693051 1329704489.130573 559 469 615 428 425 566
25.725587 1329704489.154251 569 472 616 435 428 570
25.725587 1329704489.167982 575 476 618 439 432 575
25.767741 1329704489.172206 576 482 622 437 438 582
25.767741 1329704489.180838 576 487 626 432 440 585
25.811410 1329704489.189412 577 492 630 423 442 584
25.811410 1329704489.197601 582 497 633 408 439 581
25.859398 1329704489.205946 581 502 637 391 433 573
25.859398 1329704489.214186 576 504 638 376 428 562
25.883919 1329704489.222126 579 505 638 358 414 555
25.883919 1329704489.230938 581 506 637 348 403 549
25.925665 1329704489.239160 582 507 635 347 395 548
25.925665 1329704489.247584 578 508 633 355 389 545
25.967099 1329704489.267585 577 510 632 368 386 540
25.967099 1329704489.273125 575 511 631 379 383 535
26.017783 1329704489.280779 575 514 629 384 375 530
26.017783 1329704489.288561 568 515 627 390 370 519
26.050598 1329704489.297048 560 515 623 398 367 503
26.050598 1329704489.305159 560 518 623 401 370 490
26.084377 1329704489.313789 552 520 621 392 371 478
26.084377 1329704489.321992 546 519 618 382 364 464
26.137033 1329704489.330622 541 516 614 379 356 446
26.137033 1329704489.338692 541 513 610 382 359 431
26.167382 1329704489.347199 536 512 607 379 362 427
26.167382 1329704489.355695 530 512 603 370 357 427
26.214478 1329704489.364111 523 511 598 369 352 418
26.214478 1329704489.374712 520 509 594 377 356 407
26.250427 1329704489.380944 520 508 592 381 368 398
26.250427 1329704489.388730 518 507 592 375 374 396
26.283713 1329704489.397396 513 506 593 367 374 393
26.283713 1329704489.405775 510 502 592 369 374 384
26.325309 1329704489.414252 509 495 593 373 375 374
26.325309 1329704489.424298 510 489 594 372 375 368
26.367284 1329704489.430800 509 485 594 369 373 366
26.367284 1329704489.439620 512 483 596 372 377 372
26.409191 1329704489.447015 509 483 597 377 381 379
26.409191 1329704489.456728 510 484 598 377 381 385
26.465243 1329704489.464077 511 486 599 370 378 385
26.465243 1329704489.472192 508 488 601 372 378 381
26.492106 1329704489.480837 508 487 603 375 382 370
26.492106 1329704489.488809 513 485 604 372 382 365
26.525088 1329704489.496915 513 485 605 364 381 364
26.525088 1329704489.506165 512 485 605 361 381 363
26.567071 1329704489.514111 513 483 606 362 380 360
26.567071 1329704489.522391 515 481 606 366 380 360
26.610156 1329704489.531316 516 480 607 368 381 360
26.610156 1329704489.539024 515 480 607 371 379 361
26.650409 1329704489.546857 514 480 606 377 375 361
26.650409 1329704489.555833 514 479 604 381 372 362
26.691933 1329704489.563989 516 479 603 381 371 364
26.691933 1329704489.572161 513 479 602 379 374 362
26.725186 1329704489.594067 512 479 601 374 375 360
26.725186 1329704489.607735 513 479 602 367 377 362
26.764990 1329704489.613680 511 480 602 360 373 364
26.764990 1329704489.622257 510 481 601 357 372 363
26.815782 1329704489.630607 509 480 600 360 376 361
26.815782 1329704489.638997 509 480 600 367 380 357
26.850290 1329704489.647308 508 478 600 374 381 359
26.850290 1329704489.657042 509 477 599 379 380 360
26.891654 1329704489.663683 507 474 600 384 380 361
26.891654 1329704489.673021 505 472 599 387 379 363
26.925323 1329704489.680735 503 468 598 391 379 368
26.925323 1329704489.689107 500 464 597 392 379 374
26.966665 1329704489.697404 500 458 596 395 381 384
26.966665 1329704489.713415 496 456 597 399 383 389
27.008191 1329704489.716318 494 452 597 403 386 394
27.008191 1329704489.722289 491 447 596 403 388 395
27.049771 1329704489.730482 487 440 597 401 387 395
27.049771 1329704489.739022 491 432 598 397 389 401
27.109863 1329704489.747230 492 424 601 393 391 413
27.109863 1329704489.770845 492 416 603 390 392 425
27.133028 1329704489.773616 492 408 607 386 396 436
27.133028 1329704489.780391 500 403 611 381 394 451
27.165938 1329704489.788742 498 400 614 373 391 468
27.165938 1329704489.797034 506 397 616 365 389 485
27.207593 1329704489.805348 515 399 619 358 391 506
27.207593 1329704489.813691 519 403 622 350 393 529
27.248323 1329704489.821694 530 410 625 344 391 548
27.248323 1329704489.830444 533 421 629 340 386 564
27.290054 1329704489.838424 541 433 631 336 375 577
27.290054 1329704489.847531 542 445 629 330 361 580
27.323947 1329704489.855258 542 456 628 328 347 582
27.323947 1329704489.862865 540 472 625 330 330 585
27.364965 1329704489.871498 539 488 620 327 313 580
27.364965 1329704489.881164 539 501 613 326 302 569
27.406487 1329704489.888641 536 510 604 336 297 553
27.406487 1329704489.898443 536 514 597 354 303 534
27.448063 1329704489.905428 541 514 591 373 308 521
27.448063 1329704489.913337 545 516 586 389 307 511
27.489725 1329704489.921929 539 521 582 404 309 495
27.489725 1329704489.930529 539 523 578 417 313 476
27.530981 1329704489.938595 543 523 574 424 317 457
27.530981 1329704489.946852 543 527 570 422 319 447
27.564559 1329704489.955447 536 532 568 423 321 431
27.564559 1329704489.963150 535 537 567 437 329 412
27.606146 1329704489.973991 534 541 565 451 339 394
27.606146 1329704489.989536 529 546 566 455 349 372
27.647716 1329704490.022105 527 551 567 448 356 352
27.647716 1329704490.036539 526 555 571 437 367 325
27.689130 1329704490.042900 533 555 573 422 377 296
27.689130 1329704490.046475 526 557 579 409 391 254
27.735786 1329704490.054841 536 552 586 394 404 212
27.735786 1329704490.063332 549 545 591 372 409 179
27.769013 1329704490.074479 559 539 597 350 410 148
27.769013 1329704490.080327 571 532 605 342 415 119
27.805936 1329704490.088093 590 524 614 347 424 90
27.805936 1329704490.096511 608 516 620 351 423 64
27.850280 1329704490.104532 626 510 626 349 413 48
27.850280 1329704490.113164 642 500 634 355 403 35
27.890043 1329704490.125791 649 492 640 380 392 20
27.890043 1329704490.129855 660 482 646 409 371 5
27.932324 1329704490.138172 681 476 649 413 348 4
27.932324 1329704490.147366 694 467 657 402 332 4
27.965337 1329704490.154592 696 455 660 391 318 4
27.965337 1329704490.163051 701 445 660 376 305 4
28.006759 1329704490.180192 698 435 661 350 302 4
28.006759 1329704490.188345 707 429 664 305 300 4
28.048629 1329704490.196456 705 420 669 270 303 4
28.048629 1329704490.204733 705 416 670 257 303 4
28.094889 1329704490.213054 697 416 666 259 301 5
28.094889 1329704490.221701 687 417 663 256 299 17
28.142023 1329704490.229692 675 415 658 241 292 39
28.142023 1329704490.237994 664 415 651 245 291 65
28.173506 1329704490.246551 644 417 643 271 295 92
28.173506 1329704490.255220 629 423 635 299 300 121
28.207835 1329704490.263138 609 428 626 315 295 148
28.207835 1329704490.271695 592 431 616 326 289 170
28.246198 1329704490.279662 582 436 606 343 294 192
28.246198 1329704490.288611 574 439 597 358 298 211
28.289790 1329704490.296422 563 439 589 367 298 227
28.289790 1329704490.304907 551 440 580 370 298 242
28.333762 1329704490.313102 539 441 571 370 302 259
28.333762 1329704490.321399 531 440 565 368 313 272
28.365033 1329704490.329809 528 438 560 367 326 290
28.365033 1329704490.341045 524 436 558 365 337 312
28.413070 1329704490.346629 512 433 554 383 342 331
28.413070 1329704490.354239 526 440 557 392 364 353
28.448738 1329704490.362718 522 440 555 389 374 371
28.448738 1329704490.371383 518 442 558 379 384 387
28.489603 1329704490.391472 513 443 560 374 392 402
28.489603 1329704490.405170 512 445 563 375 398 418
28.531530 1329704490.413785 517 446 566 382 400 434
28.531530 1329704490.420917 518 448 570 396 405 451
28.564920 1329704490.429149 521 449 574 412 411 471
28.564920 1329704490.438003 531 451 579 431 421 493
28.606021 1329704490.446536 531 454 584 450 432 512
28.606021 1329704490.455091 533 457 591 459 440 529
28.647999 1329704490.463117 540 460 598 463 442 542
28.647999 1329704490.471316 549 464 605 462 443 551
28.690022 1329704490.479402 553 465 610 453 442 558
28.690022 1329704490.487833 559 467 616 442 440 564
28.731666 1329704490.496334 567 470 620 437 438 568
28.731666 1329704490.504667 566 472 623 435 434 572
28.764835 1329704490.513307 568 475 625 426 433 574
28.764835 1329704490.521270 569 479 628 414 434 579
28.812212 1329704490.529540 570 483 634 406 436 582
28.812212 1329704490.537921 575 487 635 398 431 586
28.848760 1329704490.546517 574 492 638 393 427 584
28.848760 1329704490.554768 575 495 641 384 425 580
28.887403 1329704490.563036 576 497 641 373 414 573
28.887403 1329704490.571523 575 503 642 368 409 567
28.937632 1329704490.579246 577 507 641 365 407 566
28.937632 1329704490.587874 571 506 641 363 400 561
28.964619 1329704490.596320 569 506 638 363 384 553
28.964619 1329704490.606341 575 509 636 374 376 546
29.006767 1329704490.613159 571 513 634 386 373 547
29.006767 1329704490.621027 564 511 633 392 362 539
29.048147 1329704490.629639 565 510 631 398 359 525
29.048147 1329704490.637380 564 510 629 403 364 517
29.090019 1329704490.654623 553 512 627 398 361 508
29.090019 1329704490.663613 546 512 623 387 349 494
29.132540 1329704490.671051 541 511 617 380 339 477
29.132540 1329704490.680242 538 512 611 379 341 462
29.164584 1329704490.687037 535 509 606 374 343 456
29.164584 1329704490.695629 528 505 602 376 343 450
29.206402 1329704490.704131 518 503 600 391 351 442
29.206402 1329704490.712364 516 499 599 406 359 434
29.260527 1329704490.720658 516 495 597 408 361 429
29.260527 1329704490.728901 510 492 593 405 359 427
29.289439 1329704490.737393 509 489 592 408 366 421
29.289439 1329704490.745349 511 488 593 411 376 423
29.328042 1329704490.753627 509 488 593 404 379 430
29.328042 1329704490.762311 505 489 594 393 381 429
29.373081 1329704490.770631 503 490 596 391 384 422
29.373081 1329704490.778884 505 490 597 392 385 412
29.405485 1329704490.787283 506 491 599 388 381 409
29.405485 1329704490.795598 504 492 599 381 372 406
29.448883 1329704490.803784 503 492 599 381 370 401
29.448883 1329704490.812425 504 492 600 385 375 396
29.488703 1329704490.820736 506 490 601 382 378 392
29.488703 1329704490.828819 506 489 601 373 377 392
29.547551 1329704490.837142 506 489 600 367 376 391
29.547551 1329704490.845330 506 490 600 365 376 389
29.570599 1329704490.853877 506 488 601 363 375 380
29.570599 1329704490.866200 506 486 601 361 378 377
29.605014 1329704490.870428 506 485 600 365 377 374
29.605014 1329704490.878580 504 484 600 371 380 371
29.646860 1329704490.887157 505 482 600 377 380 367
29.646860 1329704490.895716 504 481 600 380 379 365
29.684887 1329704490.913910 504 480 600 383 376 365
29.684887 1329704490.920722 501 479 598 388 376 365
29.746859 1329704490.928702 499 477 597 391 377 363
29.746859 1329704490.936926 501 476 599 388 381 359
29.772075 1329704490.945555 500 475 601 382 381 356
29.772075 1329704490.954044 498 474 602 371 379 353
29.804815 1329704490.962218 500 472 603 362 379 352
29.804815 1329704490.970362 500 471 603 355 377 352
29.856414 1329704490.978805 502 470 604 350 380 355
29.856414 1329704490.986957 502 470 604 354 378 356
29.888303 1329704490.995477 500 471 604 361 374 358
29.888303 1329704491.006053 501 471 603 372 372 360
29.929809 1329704491.020595 502 472 602 381 371 362
29.929809 1329704491.055077 501 473 601 387 370 362
29.971184 1329704491.065868 499 473 601 390 369 359
29.971184 1329704491.071318 499 472 600 387 369 356
30.006772 1329704491.079315 499 472 598 379 370 357
30.006772 1329704491.087455 501 472 598 372 373 358
30.046572 1329704491.095893 501 473 598 364 377 359
30.046572 1329704491.116835 502 474 598 356 379 357
30.088145 1329704491.120339 500 475 598 347 379 356
30.088145 1329704491.128984 502 477 598 344 378 356
30.124987 1329704491.137429 503 477 600 344 381 353
30.124987 1329704491.146234 504 477 602 348 382 351
30.171047 1329704491.154141 503 476 602 352 381 350
30.171047 1329704491.162633 503 477 603 357 380 352
30.204761 1329704491.170506 503 476 603 366 378 354
30.204761 1329704491.178695 504 476 603 373 375 355
30.272499 1329704491.187402 504 476 601 378 374 357
30.272499 1329704491.195517 503 476 601 381 375 357
30.284401 1329704491.204011 502 476 600 385 376 356
30.284401 1329704491.220357 502 475 600 384 376 355
30.329437 1329704491.225099 502 475 599 381 375 353
30.329437 1329704491.228398 502 474 599 378 376 355
30.373404 1329704491.237511 502 473 598 376 377 355
30.373404 1329704491.245554 502 472 597 373 382 357
30.404457 1329704491.253940 503 471 598 370 381 359
30.404457 1329704491.262212 502 472 598 368 382 362
30.446222 1329704491.270436 502 473 599 368 383 362
30.446222 1329704491.278728 501 472 599 369 384 361
30.487954 1329704491.287324 502 472 599 371 383 362
30.487954 1329704491.295545 500 472 597 373 384 364
30.529169 1329704491.304169 496 472 597 376 387 367
30.529169 1329704491.324666 494 471 596 379 390 369
30.570899 1329704491.328769 491 470 594 375 391 372
30.570899 1329704491.336903 488 466 592 372 392 375
30.604818 1329704491.345626 485 462 592 370 400 377
30.604818 1329704491.353980 482 457 592 363 407 379
30.645958 1329704491.362118 477 452 592 345 409 383
30.645958 1329704491.379823 478 446 596 330 416 389
30.697778 1329704491.412271 478 438 603 320 422 399
30.697778 1329704491.424860 484 430 613 312 426 415
30.729066 1329704491.430762 489 423 625 305 421 434
30.729066 1329704491.437410 492 420 635 309 410 454
30.767398 1329704491.445449 497 416 644 325 400 477
30.767398 1329704491.454021 508 413 653 344 390 507
30.811670 1329704491.462537 525 418 659 363 376 532
30.811670 1329704491.469922 526 427 663 378 349 547
30.844887 1329704491.478491 532 430 655 389 322 559
30.844887 1329704491.487548 546 433 642 388 301 577
30.886363 1329704491.495137 555 444 628 380 283 599
30.886363 1329704491.503837 558 461 614 370 273 615
30.928098 1329704491.511822 561 481 604 367 276 621
30.928098 1329704491.520292 560 499 594 365 284 612
30.969636 1329704491.528756 555 514 588 357 291 590
30.969636 1329704491.537156 551 526 584 351 299 559
31.004693 1329704491.545651 545 535 581 355 305 520
31.004693 1329704491.553511 546 545 575 365 309 486
31.044077 1329704491.561711 545 551 569 373 314 457
31.044077 1329704491.571397 549 552 564 382 328 430
31.086928 1329704491.578624 550 554 560 398 346 408
31.086928 1329704491.587404 549 554 561 415 368 387
31.130359 1329704491.595385 553 554 563 432 385 366
31.130359 1329704491.603756 554 554 565 439 394 347
31.177865 1329704491.614028 555 555 567 437 398 327
31.177865 1329704491.628772 554 555 569 432 405 307
31.216111 1329704491.642101 557 555 572 431 419 285
31.216111 1329704491.647205 560 554 577 433 433 253
31.244405 1329704491.653476 562 552 583 429 442 221
31.244405 1329704491.661843 571 549 588 416 442 191
31.285844 1329704491.669903 580 544 592 408 445 158
31.285844 1329704491.681103 590 537 595 407 451 122
31.330867 1329704491.687039 599 530 600 404 449 92
31.330867 1329704491.694978 614 522 607 403 449 68
31.370013 1329704491.703731 633 510 614 417 453 42
31.370013 1329704491.711798 650 498 621 442 455 15
31.414321 1329704491.719925 676 486 625 459 456 4
31.414321 1329704491.749286 685 479 635 451 444 4
31.445115 1329704491.753425 692 470 643 443 417 4
31.445115 1329704491.761896 692 464 647 450 384 4
31.486893 1329704491.770150 707 459 646 452 349 4
31.486893 1329704491.778618 712 452 643 443 330 4
31.528822 1329704491.786010 716 444 643 425 321 4
31.528822 1329704491.794687 708 436 642 400 305 4
31.564919 1329704491.803168 704 433 640 378 294 4
31.564919 1329704491.811454 706 432 638 366 293 10
31.612112 1329704491.819909 696 433 636 365 293 27
31.612112 1329704491.828271 674 434 631 371 285 46
31.645528 1329704491.838293 657 436 624 378 274 63
31.645528 1329704491.844420 651 438 617 385 268 86
31.686742 1329704491.854358 634 438 611 396 269 110
31.686742 1329704491.861180 616 438 605 404 267 135
31.727470 1329704491.870679 597 436 597 407 262 156
31.727470 1329704491.879967 583 435 587 405 257 177
31.770270 1329704491.905339 571 436 577 397 258 202
31.770270 1329704491.928912 563 437 569 387 268 223
31.805967 1329704491.940709 557 437 564 378 288 246
31.805967 1329704491.945947 551 437 562 376 317 267
31.844632 1329704491.952825 544 439 560 375 338 290
31.844632 1329704491.961066 534 440 561 378 347 305
31.886454 1329704491.968928 531 441 561 380 351 320
31.886454 1329704491.977650 528 441 560 382 353 337
31.927810 1329704491.985937 525 441 559 386 354 354
31.927810 1329704491.993976 524 441 555 402 357 373
31.969637 1329704492.002673 527 442 555 410 369 391
31.969637 1329704492.010627 529 445 556 401 382 408
32.025911 1329704492.018629 527 447 558 387 393 420
32.025911 1329704492.037307 521 449 561 374 405 429
32.044528 1329704492.043348 520 450 566 365 408 441
32.044528 1329704492.052079 524 448 570 364 408 454
32.086212 1329704492.060336 527 446 574 378 413 473
32.086212 1329704492.068774 532 446 582 394 424 493
32.127629 1329704492.076533 541 449 587 399 433 511
32.127629 1329704492.093225 546 453 592 396 439 524
32.167476 1329704492.106219 545 456 598 394 446 534
32.167476 1329704492.110269 549 458 603 394 445 541
32.211227 1329704492.118586 560 460 609 390 443 549
32.211227 1329704492.127080 564 465 615 385 439 557
32.244519 1329704492.134941 563 469 618 383 433 563
32.244519 1329704492.143155 569 473 620 379 428 566
32.287473 1329704492.152535 569 477 623 377 420 571
32.287473 1329704492.159995 567 478 624 381 417 573
32.327770 1329704492.168341 575 482 626 384 414 574
32.327770 1329704492.176749 576 486 628 389 413 574
32.369434 1329704492.185004 575 488 630 389 412 574
32.369434 1329704492.193396 576 490 629 384 406 570
32.411080 1329704492.208898 581 497 631 374 405 571
32.411080 1329704492.211007 579 501 632 365 402 570
32.457958 1329704492.218289 575 504 631 362 392 559
32.457958 1329704492.227351 570 507 630 364 389 547
32.486091 1329704492.234932 572 507 627 362 384 537
32.486091 1329704492.243357 572 507 625 361 382 529
32.527591 1329704492.256877 570 509 625 365 385 524
32.527591 1329704492.259771 562 513 625 370 386 517
32.569512 1329704492.268050 557 514 625 374 381 506
32.569512 1329704492.276471 561 515 625 379 377 500
32.611101 1329704492.284579 558 516 627 383 371 488
32.611101 1329704492.296884 554 515 627 388 362 480
32.644483 1329704492.302854 546 512 624 387 352 470
32.644483 1329704492.315892 542 507 619 388 345 457
32.686129 1329704492.317931 541 503 616 391 344 454
32.686129 1329704492.326165 541 501 613 388 343 459
32.733660 1329704492.334501 537 499 609 386 343 462
32.733660 1329704492.364845 532 496 608 391 344 457
32.769088 1329704492.375977 530 493 607 401 349 454
32.769088 1329704492.377812 526 492 604 404 348 457
32.804229 1329704492.384814 520 492 601 401 344 461
32.804229 1329704492.392972 517 495 597 402 344 458
32.844902 1329704492.400960 513 498 595 405 350 449
32.844902 1329704492.420807 514 501 593 402 358 442
32.885106 1329704492.434092 511 502 593 393 364 432
32.885106 1329704492.435850 507 502 593 385 365 422
32.927262 1329704492.443193 505 499 594 381 363 409
32.927262 1329704492.451913 508 498 592 375 363 398
32.968446 1329704492.459272 505 496 593 369 364 388
32.968446 1329704492.468184 508 495 592 367 369 382
33.010231 1329704492.476150 506 494 592 369 375 379
33.010231 1329704492.484682 506 495 592 368 380 377
33.053453 1329704492.493016 504 496 594 362 382 373
33.053453 1329704492.501227 505 495 594 357 381 370
33.086545 1329704492.509201 505 494 593 359 383 368
33.086545 1329704492.518301 502 492 594 366 386 363
33.126942 1329704492.526106 502 489 594 369 388 360
33.126942 1329704492.534505 505 487 594 371 385 360
33.172047 1329704492.543112 504 486 595 373 388 360
33.172047 1329704492.551462 502 484 596 377 390 357
33.209929 1329704492.559384 503 482 598 376 388 353
33.209929 1329704492.567856 502 480 599 370 391 350
33.251765 1329704492.576356 503 479 601 364 392 349
33.251765 1329704492.584945 504 479 603 358 393 350
33.287207 1329704492.593219 503 479 605 357 392 348
33.287207 1329704492.601718 503 479 606 353 391 346
33.326487 1329704492.609742 503 479 607 352 390 345
33.326487 1329704492.618438 505 478 607 352 389 344
33.368139 1329704492.626715 508 477 608 355 388 345
33.368139 1329704492.635753 508 477 608 358 385 345
33.410318 1329704492.643466 507 477 608 359 383 347
33.410318 1329704492.652284 508 477 607 363 380 349
33.444086 1329704492.660106 509 477 607 364 379 350
33.444086 1329704492.668650 508 477 607 366 379 354
33.485223 1329704492.683192 509 478 605 364 377 355
33.485223 1329704492.685878 508 480 605 361 376 356
33.531899 1329704492.693953 508 481 603 359 377 356
33.531899 1329704492.702530 510 482 603 357 378 356
33.568140 1329704492.710749 510 483 603 353 379 354
33.568140 1329704492.718860 509 484 604 350 380 352
33.610647 1329704492.727535 509 484 604 350 380 351
33.610647 1329704492.737901 510 484 604 355 378 352
33.647815 1329704492.743879 511 484 604 361 378 355
33.647815 1329704492.752447 512 485 603 365 379 356
33.686810 1329704492.760789 512 486 604 369 380 356
33.686810 1329704492.769132 511 487 604 376 379 356
33.726558 1329704492.777507 511 487 604 379 377 356
33.726558 1329704492.790825 511 486 604 380 375 356
33.768023 1329704492.793672 512 485 603 381 376 358
33.768023 1329704492.802236 512 485 603 381 378 357
33.804717 1329704492.810313 510 485 603 381 379 356
33.804717 1329704492.818810 511 484 603 378 380 355
33.852112 1329704492.827173 511 484 603 373 381 356
33.852112 1329704492.835735 512 484 604 372 381 357
33.884275 1329704492.854668 513 484 604 371 380 357
33.884275 1329704492.860585 512 484 604 371 380 357
33.926195 1329704492.868902 512 483 604 373 379 359
33.926195 1329704492.877200 513 484 604 376 380 360
33.980721 1329704492.885740 514 484 605 378 379 360
33.980721 1329704492.893785 513 485 606 381 378 361
34.009242 1329704492.909426 513 485 605 382 378 362
34.009242 1329704492.921491 513 485 605 383 376 361
34.050909 1329704492.928746 513 486 604 383 376 359
34.050909 1329704492.941578 512 487 604 382 375 359
34.084191 1329704492.944422 512 487 603 378 376 359
34.084191 1329704492.951972 512 488 602 376 376 358
34.133030 1329704492.960448 511 489 604 375 377 358
34.133030 1329704492.968266 509 490 604 372 377 357
34.167664 1329704492.976443 505 489 602 370 374 357
34.167664 1329704492.984949 500 486 600 370 375 355
34.210926 1329704492.993361 491 479 598 370 376 350
34.210926 1329704493.001467 481 465 596 368 372 343
34.251116 1329704493.010126 480 445 595 356 370 341
34.251116 1329704493.023231 478 424 597 336 373 353
34.292207 1329704493.026802 473 405 604 320 389 379
34.292207 1329704493.035225 478 385 616 310 412 412
34.325290 1329704493.043620 487 367 635 300 428 453
34.325290 1329704493.051995 502 360 654 287 427 494
34.367064 1329704493.072517 517 367 669 280 405 530
34.367064 1329704493.077683 525 380 676 287 372 565
34.408543 1329704493.084812 542 396 676 313 343 599
34.408543 1329704493.094556 562 420 673 351 317 634
34.454978 1329704493.101947 562 444 662 388 288 653
34.454978 1329704493.109989 580 469 646 424 266 659
34.491217 1329704493.118669 574 487 628 445 252 653
34.491217 1329704493.127139 583 499 609 449 248 642
34.528353 1329704493.134843 593 510 593 439 259 631
34.528353 1329704493.143279 594 524 584 428 275 616
34.566148 1329704493.152029 593 534 577 424 293 592
34.566148 1329704493.159913 600 544 573 425 313 568
34.607657 1329704493.171714 595 558 571 417 326 541
34.607657 1329704493.176725 597 571 576 403 333 502
34.650687 1329704493.184751 594 582 579 387 344 459
34.650687 1329704493.193310 593 590 579 373 350 415
34.688023 1329704493.202012 590 595 579 364 357 373
34.688023 1329704493.210004 592 602 578 360 366 337
34.743186 1329704493.219312 593 607 579 362 378 301
34.743186 1329704493.226896 594 609 583 367 391 268
34.766144 1329704493.234661 599 604 588 376 402 227
34.766144 1329704493.243257 592 600 594 380 411 173
34.807465 1329704493.251704 610 586 599 384 412 121
34.807465 1329704493.259827 627 570 603 390 411 75
34.850545 1329704493.270583 632 554 607 393 407 33
34.850545 1329704493.282860 651 537 610 383 398 5
34.892058 1329704493.296111 666 516 616 367 395 4
34.892058 1329704493.319434 679 493 619 362 398 4
34.925727 1329704493.332171 693 475 622 371 408 4
34.925727 1329704493.335758 709 463 631 386 424 4
34.966829 1329704493.343222 706 456 640 373 419 4
34.966829 1329704493.351831 707 448 645 344 397 4
35.014434 1329704493.359569 736 441 650 338 389 4
35.014434 1329704493.368041 729 431 656 350 391 4
35.050523 1329704493.376753 732 427 656 345 371 4
35.050523 1329704493.384863 728 429 652 309 347 4
35.092819 1329704493.393333 723 422 643 286 338 4
35.092819 1329704493.401559 708 413 637 289 347 4
35.127240 1329704493.414306 684 410 631 305 356 4
35.127240 1329704493.417887 662 412 624 329 353 21
35.173679 1329704493.426508 637 414 615 356 350 65
35.173679 1329704493.434682 619 412 607 382 350 103
35.208483 1329704493.443139 601 410 601 398 353 141
35.208483 1329704493.451759 587 412 596 409 361 178
35.250416 1329704493.467100 574 416 592 419 372 212
35.250416 1329704493.469735 566 416 592 423 382 249
35.283679 1329704493.476728 561 420 591 422 384 290
35.283679 1329704493.484616 554 425 589 423 380 323
35.325942 1329704493.493149 547 430 586 423 380 345
35.325942 1329704493.501366 548 436 584 420 378 362
35.366601 1329704493.509268 549 438 581 409 375 378
35.366601 1329704493.518102 549 437 578 393 375 392
35.408521 1329704493.533091 552 433 577 380 377 405
35.408521 1329704493.547700 555 432 578 371 379 424
35.453088 1329704493.571378 551 434 579 367 383 445
35.453088 1329704493.586023 550 436 580 364 386 463
35.491260 1329704493.593197 551 436 584 366 390 481
35.491260 1329704493.601353 550 437 585 374 395 498
35.533411 1329704493.610457 554 439 590 382 404 517
35.533411 1329704493.618407 560 441 596 382 414 536
35.567623 1329704493.626876 569 443 601 383 415 556
35.567623 1329704493.634991 576 449 606 385 420 575
35.603952 1329704493.642950 579 453 610 382 418 591
35.603952 1329704493.651434 583 454 613 377 407 600
35.656470 1329704493.660138 590 459 614 373 400 614
35.656470 1329704493.672956 589 465 616 375 399 628
35.692537 1329704493.676603 590 470 618 376 391 634
35.692537 1329704493.685072 589 476 620 380 389 639
35.725415 1329704493.693150 598 484 623 380 391 649
35.725415 1329704493.701340 591 491 627 379 387 652
35.766398 1329704493.710014 587 499 629 379 374 644
35.766398 1329704493.718265 586 508 627 379 364 631
35.806858 1329704493.726288 582 515 624 382 363 616
35.806858 1329704493.734995 575 522 623 380 361 599
35.844907 1329704493.742688 570 527 620 383 360 581
35.844907 1329704493.751322 562 531 617 386 358 559
35.886230 1329704493.759869 556 533 613 382 357 536
35.886230 1329704493.770285 551 531 608 371 357 513
35.924850 1329704493.776444 551 530 604 362 359 493
35.924850 1329704493.785197 545 528 601 358 364 478
35.966762 1329704493.792561 539 526 600 357 370 462
35.966762 1329704493.801166 533 524 598 354 370 445
36.007613 1329704493.814866 533 520 598 357 373 432
36.007613 1329704493.817868 535 516 598 362 379 422
36.065842 1329704493.826438 530 515 600 365 378 419
36.065842 1329704493.834923 522 512 602 373 372 412
36.091638 1329704493.842843 521 510 603 383 370 405
36.091638 1329704493.851311 523 509 602 385 370 409
36.124869 1329704493.859987 518 509 602 384 370 411
36.124869 1329704493.868273 513 508 602 392 371 407
36.166508 1329704493.876715 514 505 604 403 376 400
36.166508 1329704493.884911 519 503 606 404 377 399
36.207971 1329704493.893566 515 503 605 399 373 398
36.207971 1329704493.901477 510 503 605 392 372 390
36.249087 1329704493.910566 507 500 605 388 375 377
36.249087 1329704493.924166 510 494 605 379 376 368
36.291210 1329704493.927534 514 491 603 366 376 367
36.291210 1329704493.934855 511 490 604 360 380 368
36.342719 1329704493.942903 510 489 606 362 383 365
36.342719 1329704493.951315 511 487 609 363 384 364
36.367448 1329704493.959788 509 485 610 359 379 366
36.367448 1329704493.968355 510 486 609 361 374 368
36.413879 1329704493.976221 508 486 608 371 374 369
36.413879 1329704493.984740 507 484 607 376 374 370
36.446248 1329704493.992346 509 485 606 378 375 373
36.446248 1329704494.000369 507 488 606 376 376 372
36.491225 1329704494.009143 504 489 606 371 376 367
36.491225 1329704494.017518 503 488 605 363 377 361
36.531188 1329704494.037619 504 486 604 354 377 359
36.531188 1329704494.042523 505 487 604 347 379 361
36.565841 1329704494.051120 504 487 605 349 380 361
36.565841 1329704494.058872 504 486 605 351 379 359
36.607746 1329704494.067497 502 485 605 353 378 360
36.607746 1329704494.078534 503 484 605 359 378 363
36.649111 1329704494.084296 500 483 606 373 377 364
36.649111 1329704494.092194 496 480 605 386 375 362
36.690887 1329704494.100596 495 476 605 394 373 364
36.690887 1329704494.108718 491 472 603 401 372 367
36.724735 1329704494.117179 487 468 603 409 373 370
36.724735 1329704494.125715 481 462 603 413 372 373
36.765639 1329704494.134156 479 453 603 410 371 378
36.765639 1329704494.142357 480 441 604 401 374 385
36.807473 1329704494.150573 487 431 607 394 375 391
36.807473 1329704494.158795 485 414 606 379 373 403
36.848968 1329704494.167265 494 407 605 366 376 421
36.848968 1329704494.175682 509 401 604 354 379 454
36.885032 1329704494.188554 507 403 605 348 382 488
36.885032 1329704494.194174 510 408 603 343 381 517
36.931345 1329704494.200532 516 413 602 342 380 543
36.931345 1329704494.208570 521 421 600 336 381 567
36.965178 1329704494.217224 526 434 599 329 384 586
36.965178 1329704494.225415 521 444 597 326 386 598
37.006134 1329704494.234586 526 456 595 330 390 606
37.006134 1329704494.242147 527 467 595 337 397 608
37.047945 1329704494.250707 526 477 594 348 405 608
37.047945 1329704494.259032 527 488 594 360 409 609
37.088759 1329704494.267533 524 500 594 365 412 607
37.088759 1329704494.275672 524 505 596 365 414 594
37.130654 1329704494.284621 540 501 597 358 413 574
37.130654 1329704494.292190 559 506 599 346 417 559
37.164087 1329704494.302178 559 511 603 330 415 537
37.164087 1329704494.308790 565 515 604 320 404 517
37.205749 1329704494.318527 574 517 602 314 392 502
37.205749 1329704494.325122 576 523 602 317 383 488
37.249671 1329704494.334020 570 528 602 328 374 467
37.249671 1329704494.342370 570 530 601 347 367 447
37.288262 1329704494.350001 575 531 600 366 361 434
37.288262 1329704494.358959 571 535 598 384 355 423
37.330431 1329704494.366947 568 539 597 398 350 413
37.330431 1329704494.375240 566 542 595 407 347 400
37.371812 1329704494.383804 563 546 593 410 349 390
37.371812 1329704494.392249 558 550 592 402 352 376
37.405412 1329704494.399834 550 554 592 391 357 360
37.405412 1329704494.408817 546 554 592 386 366 336
37.447249 1329704494.417028 549 553 592 381 379 310
37.447249 1329704494.425495 555 549 591 371 391 282
37.489352 1329704494.433684 556 546 591 358 396 260
37.489352 1329704494.442363 560 544 590 347 396 245
37.530114 1329704494.450163 562 541 589 349 400 233
37.530114 1329704494.458521 567 537 588 364 406 214
37.563905 1329704494.466837 570 535 587 388 410 199
37.563905 1329704494.475448 573 532 586 415 415 188
37.608946 1329704494.483772 580 528 588 435 420 174
37.608946 1329704494.496593 585 524 593 441 418 158
37.655434 1329704494.500001 586 522 596 440 413 142
37.655434 1329704494.508785 587 518 598 434 402 130
37.689070 1329704494.517068 591 514 601 431 396 115
37.689070 1329704494.525447 591 505 605 434 396 91
37.731657 1329704494.533587 591 497 607 439 394 75
37.731657 1329704494.547787 596 491 607 434 396 68
37.764940 1329704494.552299 597 486 611 421 402 59
37.764940 1329704494.573689 600 480 615 411 406 44
37.814417 1329704494.576363 604 472 618 405 410 30
37.814417 1329704494.583679 613 470 618 388 414 27
37.848022 1329704494.592014 610 469 621 361 415 22
37.848022 1329704494.600335 612 467 624 350 415 19
37.889372 1329704494.608261 626 468 627 362 421 25
37.889372 1329704494.616829 625 474 630 385 422 27
37.934989 1329704494.625267 613 478 632 405 413 20
37.934989 1329704494.633378 622 471 634 425 399 18
37.965857 1329704494.641991 623 466 635 446 386 38
37.965857 1329704494.650362 613 466 633 463 370 63
38.006061 1329704494.658705 603 462 630 474 353 78
38.006061 1329704494.666723 602 455 624 481 338 95
38.044994 1329704494.675455 588 445 619 481 326 119
38.044994 1329704494.683479 571 436 612 470 316 149
38.091892 1329704494.692395 560 430 605 450 303 186
38.091892 1329704494.700293 556 426 598 430 299 222
38.130655 1329704494.711148 553 423 591 411 303 252
38.130655 1329704494.716688 550 423 586 399 305 278
38.167412 1329704494.725141 544 422 583 394 311 300
38.167412 1329704494.733406 544 420 581 388 319 325
38.205681 1329704494.741890 537 420 579 382 325 353
38.205681 1329704494.750251 528 421 577 375 331 375
38.258029 1329704494.759543 531 426 576 372 338 399
38.258029 1329704494.766415 525 430 576 377 344 418
38.288325 1329704494.775198 519 433 577 388 347 436
38.288325 1329704494.783630 519 433 576 400 344 459
38.330337 1329704494.791513 524 438 575 411 349 485
38.330337 1329704494.800254 523 446 574 420 360 507
38.363837 1329704494.808009 519 453 574 429 367 520
38.363837 1329704494.816327 520 457 576 431 377 526
38.422537 1329704494.825171 526 460 577 423 386 532
38.422537 1329704494.833299 524 464 581 414 396 541
38.447347 1329704494.841740 522 465 585 404 407 548
38.447347 1329704494.850545 524 467 590 392 410 554
38.488880 1329704494.868879 528 470 593 377 408 558
38.488880 1329704494.874839 530 476 596 367 407 563
38.537819 1329704494.883098 527 479 597 359 405 563
38.537819 1329704494.891849 538 483 600 356 411 560
38.564560 1329704494.900099 538 486 604 356 415 557
38.564560 1329704494.910300 531 489 608 357 414 551
38.605067 1329704494.926759 531 489 608 358 411 542
38.605067 1329704494.948075 538 490 610 362 415 541
38.646616 1329704494.950626 540 496 612 361 415 542
38.646616 1329704494.958247 537 501 615 360 411 537
38.688713 1329704494.966514 543 507 616 361 408 530
38.688713 1329704494.975332 534 512 617 366 402 519
38.731207 1329704494.983299 531 517 617 374 395 507
38.731207 1329704494.998456 534 521 616 381 391 496
38.764841 1329704495.000874 537 522 617 386 391 485
38.764841 1329704495.008138 530 523 615 393 386 473
38.805346 1329704495.016421 529 523 615 403 384 464
38.805346 1329704495.025062 531 521 615 410 385 456
38.846971 1329704495.033171 528 519 615 414 381 448
38.846971 1329704495.041714 527 515 613 414 379 441
38.888800 1329704495.060279 527 511 612 415 378 436
38.888800 1329704495.077513 526 508 612 411 376 430
38.930152 1329704495.089320 525 508 611 404 375 422
38.930152 1329704495.092045 523 507 610 398 376 413
38.963817 1329704495.107493 519 504 607 386 376 402
38.963817 1329704495.110564 515 503 606 378 377 393
39.005062 1329704495.116136 514 503 605 375 379 381
39.005062 1329704495.124612 515 502 604 372 384 375
39.046975 1329704495.139403 516 500 603 369 386 372
39.046975 1329704495.141413 509 500 602 369 389 367
39.088645 1329704495.150209 508 501 602 376 392 359
39.088645 1329704495.157826 514 499 603 378 395 358
39.130042 1329704495.166199 515 498 603 370 393 362
39.130042 1329704495.174634 511 500 604 367 390 364
39.172693 1329704495.183065 509 500 604 371 393 363
39.172693 1329704495.191351 512 498 604 373 395 362
39.205149 1329704495.199674 511 498 603 363 396 361
39.205149 1329704495.208099 514 499 605 354 397 363
39.246785 1329704495.223540 514 499 608 356 399 364
39.246785 1329704495.236561 514 498 610 365 397 369
39.288074 1329704495.241573 514 497 610 369 390 371
39.288074 1329704495.249828 516 498 609 370 386 374
39.329984 1329704495.258275 517 499 609 376 384 375
39.329984 1329704495.266344 517 500 609 385 382 374
39.371125 1329704495.274151 516 498 609 395 380 371
39.371125 1329704495.282878 516 496 608 399 381 370
39.418942 1329704495.291312 519 494 607 398 381 373
39.418942 1329704495.299484 520 494 607 393 381 376
39.446821 1329704495.307993 519 494 607 388 383 375
39.446821 1329704495.316523 520 493 608 383 382 373
39.488234 1329704495.324046 522 493 608 374 382 372
39.488234 1329704495.337915 522 493 608 369 381 372
39.537923 1329704495.340977 522 493 608 367 381 371
39.537923 1329704495.349659 522 492 609 368 380 368
39.564194 1329704495.361581 523 492 608 369 378 369
39.564194 1329704495.366191 522 492 607 369 375 369
39.604468 1329704495.374350 522 492 606 374 374 367
39.604468 1329704495.390306 521 492 605 382 374 369
39.651434 1329704495.393363 522 491 605 386 376 368
39.651434 1329704495.399296 521 492 605 387 375 370
39.688062 1329704495.407928 519 492 604 385 374 368
39.688062 1329704495.416304 519 492 603 383 374 366
39.729609 1329704495.424334 520 491 603 380 375 364
39.729609 1329704495.432550 520 491 602 374 378 363
39.765271 1329704495.442420 519 491 602 370 378 364
39.765271 1329704495.449291 519 491 601 369 380 361
39.804735 1329704495.457848 520 492 602 369 381 361
39.804735 1329704495.466098 522 494 603 369 383 364
39.846234 1329704495.473888 522 497 604 368 382 367
39.846234 1329704495.482629 519 500 606 371 381 365
39.888021 1329704495.490984 519 499 607 377 380 361
39.888021 1329704495.499569 519 496 608 382 379 357
39.929421 1329704495.507909 518 493 609 386 379 355
39.929421 1329704495.516354 514 488 611 391 378 352
39.972065 1329704495.523911 508 480 611 393 377 351
39.972065 1329704495.532535 501 469 612 390 373 353
40.005473 1329704495.541089 498 459 614 387 367 363
40.005473 1329704495.552215 494 452 615 385 366 375
40.045694 1329704495.566900 491 445 618 388 369 383
40.045694 1329704495.579125 492 438 622 390 371 390
40.096597 1329704495.584075 493 432 625 393 363 395
40.096597 1329704495.590953 498 426 623 399 354 401
40.126640 1329704495.599335 505 419 620 403 349 414
40.126640 1329704495.612277 513 413 618 402 347 434
40.171423 1329704495.627851 517 408 615 399 346 460
40.171423 1329704495.649869 523 409 613 394 344 488
40.204294 1329704495.657422 528 413 611 382 348 515
40.204294 1329704495.665794 529 422 612 362 351 539
40.245348 1329704495.674246 530 431 609 342 348 557
40.245348 1329704495.682420 535 439 604 318 343 572
40.289615 1329704495.691350 538 449 597 300 342 593
40.289615 1329704495.699189 544 463 589 297 347 610
40.323863 1329704495.707648 534 477 582 310 355 619
40.323863 1329704495.715540 531 486 575 330 374 618
40.369001 1329704495.724107 534 495 575 350 401 615
40.369001 1329704495.742819 536 508 578 359 415 605
40.410952 1329704495.749301 518 524 583 352 414 587
40.410952 1329704495.757538 509 536 586 334 408 556
40.444715 1329704495.766052 512 540 585 318 404 520
40.444715 1329704495.774119 532 542 584 310 404 486
40.485171 1329704495.782283 538 543 585 307 408 454
40.485171 1329704495.793579 546 540 584 310 410 429
40.527520 1329704495.799343 557 535 585 321 407 414
40.527520 1329704495.807311 567 531 587 341 404 407
40.568567 1329704495.815925 572 532 588 362 399 403
40.568567 1329704495.823969 571 534 589 379 394 396
40.610434 1329704495.842793 573 536 591 396 384 391
40.610434 1329704495.866085 577 539 594 413 381 382
40.645531 1329704495.877209 571 543 595 421 372 370
40.645531 1329704495.890754 567 546 595 420 362 357
40.685959 1329704495.898280 566 549 593 418 359 344
40.685959 1329704495.906571 563 552 591 422 362 326
40.727046 1329704495.914801 564 551 589 425 371 305
40.727046 1329704495.923313 567 549 587 429 380 283
40.768164 1329704495.931376 567 548 587 435 387 261
40.768164 1329704495.939307 567 546 588 439 392 239
40.810585 1329704495.948212 572 542 589 440 395 215
40.810585 1329704495.956424 575 538 590 436 391 186
40.845641 1329704495.964624 578 533 589 433 384 161
40.845641 1329704495.975093 580 527 589 435 384 138
40.886543 1329704495.988777 589 521 591 441 389 115
40.886543 1329704495.999932 591 513 592 443 392 86
40.927957 1329704496.006341 594 506 596 443 389 61
40.927957 1329704496.014659 602 499 599 444 384 41
40.968943 1329704496.023192 611 492 602 443 382 21
40.968943 1329704496.031487 621 484 603 438 383 7
41.011425 1329704496.046667 618 477 607 421 383 4
41.011425 1329704496.069460 631 470 610 395 387 4
41.045100 1329704496.080900 639 463 616 369 397 4
41.045100 1329704496.084585 638 457 624 356 403 4
41.086456 1329704496.089690 644 455 630 354 409 4
41.086456 1329704496.098022 644 455 636 350 406 11
41.127833 1329704496.105939 634 455 639 347 399 29
41.127833 1329704496.114289 628 454 638 361 391 49
41.169745 1329704496.126529 622 451 637 396 383 73
41.169745 1329704496.131374 618 451 633 435 370 99
41.203205 1329704496.139777 604 449 628 462 355 125
41.203205 1329704496.148135 597 445 622 474 340 153
41.244843 1329704496.156257 585 442 614 474 330 181
41.244843 1329704496.164331 570 440 607 467 322 201
41.286140 1329704496.177967 558 439 598 447 315 218
41.286140 1329704496.180966 553 439 590 421 313 233
41.327574 1329704496.189530 552 439 583 391 318 253
41.327574 1329704496.198064 551 441 580 370 331 274
41.369131 1329704496.205927 546 444 581 356 346 292
41.369131 1329704496.214578 542 447 582 350 353 309
41.407983 1329704496.235353 537 448 583 352 354 321
41.407983 1329704496.257901 535 450 583 357 356 338
41.450628 1329704496.269093 537 452 582 363 357 356
41.450628 1329704496.273429 533 453 577 384 358 376
41.486019 1329704496.280730 527 457 577 398 369 392
41.486019 1329704496.289611 532 459 579 401 377 404
41.533528 1329704496.297540 534 462 580 390 383 413
41.533528 1329704496.306156 531 463 582 378 388 422
41.571540 1329704496.325824 529 462 581 372 389 430
41.571540 1329704496.333123 533 463 582 371 392 439
41.614810 1329704496.339094 537 463 584 371 396 451
41.614810 1329704496.349610 538 463 589 369 402 461
41.643798 1329704496.356148 538 463 592 361 404 472
41.643798 1329704496.372340 539 463 595 358 406 485
41.686844 1329704496.375605 541 464 598 359 408 499
41.686844 1329704496.381330 545 468 601 366 408 512
41.727494 1329704496.389055 550 471 604 368 406 523
41.727494 1329704496.397739 550 473 607 371 404 531
41.769203 1329704496.406606 558 476 608 374 401 537
41.769203 1329704496.415109 559 479 610 378 397 544
41.808975 1329704496.435645 557 481 612 382 393 551
41.808975 1329704496.440128 563 482 612 386 389 555
41.844292 1329704496.448385 568 484 612 391 389 560
41.844292 1329704496.456892 563 485 613 393 387 561
41.885554 1329704496.464960 566 487 612 387 384 563
41.885554 1329704496.473560 565 490 612 382 385 563
41.927218 1329704496.482100 566 490 612 373 387 561
41.927218 1329704496.490370 565 492 612 363 389 559
41.968976 1329704496.498495 564 495 612 351 389 552
41.968976 1329704496.507000 560 497 614 340 387 545
42.022124 1329704496.515263 556 500 613 334 383 535
42.022124 1329704496.523471 556 502 612 334 380 525
42.043785 1329704496.532087 557 502 612 337 382 519
42.043785 1329704496.540405 554 503 612 341 380 511
42.086006 1329704496.548340 551 505 611 348 376 506
42.086006 1329704496.557153 547 504 611 361 372 498
42.132626 1329704496.565601 546 504 610 378 370 491
42.132626 1329704496.573758 544 503 609 389 370 485
42.168793 1329704496.588104 546 501 608 394 369 483
42.168793 1329704496.590849 539 502 608 396 369 480
42.210679 1329704496.598493 534 503 607 398 368 469
42.210679 1329704496.606898 539 504 607 395 371 461
42.244061 1329704496.615544 536 507 607 382 372 454
42.244061 1329704496.623465 529 510 606 371 370 441
42.287277 1329704496.670159 523 510 605 366 370 424
42.287277 1329704496.672866 523 509 604 364 370 409
42.324988 1329704496.681338 524 509 601 355 370 400
42.324988 1329704496.689898 522 508 600 350 373 394
42.369085 1329704496.698275 519 506 599 354 375 386
42.369085 1329704496.708544 521 503 599 363 380 380
42.413145 1329704496.720932 523 503 599 361 384 380
42.413145 1329704496.732708 520 504 600 355 384 381
42.452433 1329704496.739839 520 505 600 354 383 379
42.452433 1329704496.748518 520 505 602 361 384 376
42.485253 1329704496.756666 521 505 603 362 384 373
42.485253 1329704496.765341 523 505 605 357 381 374
42.552591 1329704496.773386 519 505 605 359 379 372
42.552591 1329704496.781947 519 502 605 369 378 368
42.565356 1329704496.789892 522 500 605 378 378 370
42.565356 1329704496.798431 526 499 605 380 379 372
42.609914 1329704496.806342 521 501 605 381 379 369
42.609914 1329704496.815597 517 501 606 384 380 366
42.651670 1329704496.823247 520 498 606 386 379 363
42.651670 1329704496.831689 523 496 606 384 378 362
42.684764 1329704496.841060 520 496 607 381 378 358
42.684764 1329704496.848450 520 494 606 379 377 355
42.727037 1329704496.856178 520 492 605 378 377 352
42.727037 1329704496.865196 521 490 605 376 377 354
42.768424 1329704496.873352 520 490 606 375 376 352
42.768424 1329704496.888020 518 489 605 376 375 352
42.811063 1329704496.890367 517 488 605 380 374 349
42.811063 1329704496.898459 515 485 605 383 375 351
42.852111 1329704496.906393 514 483 605 386 376 353
42.852111 1329704496.915571 510 481 606 393 375 353
42.885152 1329704496.923170 505 477 607 398 373 354
42.885152 1329704496.931639 500 470 608 403 374 358
42.923837 1329704496.951434 495 463 612 403 375 362
42.923837 1329704496.956626 486 453 616 403 373 367
42.967838 1329704496.964863 479 438 621 404 369 368
42.967838 1329704496.973480 484 420 625 395 370 373
43.009149 1329704496.981729 484 403 630 375 367 392
43.009149 1329704496.999057 486 391 636 356 367 417
43.062445 1329704497.006336 499 381 640 341 362 447
43.062445 1329704497.015318 502 376 639 327 353 482
43.083838 1329704497.023102 514 381 638 319 345 521
43.083838 1329704497.031648 527 396 631 317 330 560
43.125785 1329704497.039817 532 417 621 322 315 592
43.125785 1329704497.047986 541 437 607 328 303 618
43.171806 1329704497.056086 554 461 595 339 301 634
43.171806 1329704497.064642 548 481 585 350 309 630
43.208170 1329704497.072915 553 493 572 358 322 616
43.208170 1329704497.081281 568 505 563 355 335 609
43.249756 1329704497.089766 567 519 560 353 345 605
43.249756 1329704497.098207 564 530 559 359 359 586
43.291506 1329704497.106638 563 533 558 370 374 555
43.291506 1329704497.115133 579 531 558 379 391 528
43.329946 1329704497.123441 587 536 559 385 405 515
43.329946 1329704497.131823 575 544 563 389 408 493
43.366016 1329704497.140285 573 551 568 394 408 462
43.366016 1329704497.148271 584 551 569 393 402 427
43.408079 1329704497.164253 586 556 571 394 394 398
43.408079 1329704497.167418 586 563 574 398 396 368
43.450034 1329704497.173080 586 571 577 405 404 337
43.450034 1329704497.181709 585 576 581 413 410 304
43.491356 1329704497.189968 587 574 585 425 419 262
43.491356 1329704497.198356 596 572 590 440 429 219
43.525005 1329704497.206344 603 568 597 447 432 177
43.525005 1329704497.215053 609 562 599 445 427 138
43.566720 1329704497.222936 623 552 600 446 423 97
43.566720 1329704497.231690 636 543 604 451 428 57
43.609790 1329704497.239668 639 533 610 452 425 21
43.609790 1329704497.248499 647 520 616 444 416 4
43.650144 1329704497.268719 655 504 618 444 403 4
43.650144 1329704497.294150 664 487 617 459 393 4
43.684017 1329704497.297640 676 473 614 469 389 4
43.684017 1329704497.306494 682 458 617 462 402 4
43.725301 1329704497.314537 686 442 624 447 406 4
43.725301 1329704497.323240 690 431 629 433 397 4
43.767061 1329704497.331060 684 420 634 411 388 4
43.767061 1329704497.339707 679 413 637 379 370 4
43.808842 1329704497.347797 676 406 637 371 363 4
43.808842 1329704497.356430 666 403 638 392 366 23
43.850618 1329704497.364843 639 404 640 410 357 70
43.850618 1329704497.372979 617 410 638 418 337 113
43.891948 1329704497.393271 603 416 631 433 319 151
43.891948 1329704497.399875 593 419 620 456 308 179
43.923727 1329704497.406295 581 416 610 470 299 202
43.923727 1329704497.414590 571 416 603 473 296 230
43.966713 1329704497.422852 565 418 595 466 299 257
43.966713 1329704497.431365 559 421 589 448 299 280
44.007743 1329704497.439443 553 422 584 423 303 299
44.007743 1329704497.447654 549 423 583 399 311 314
44.049327 1329704497.456592 539 422 582 384 315 330
44.049327 1329704497.464440 535 422 581 367 314 347
44.091497 1329704497.472941 533 425 578 358 316 368
44.091497 1329704497.481399 532 429 574 352 323 389
44.124290 1329704497.489980 530 435 572 353 334 406
44.124290 1329704497.501913 530 439 571 354 346 418
44.166319 1329704497.506255 526 442 571 353 357 430
44.166319 1329704497.514392 523 445 572 352 364 442
44.208217 1329704497.522928 525 448 573 354 370 457
44.208217 1329704497.531394 527 451 574 360 374 472
44.249979 1329704497.542702 530 456 576 365 383 487
44.249979 1329704497.547973 537 459 579 367 391 500
44.291650 1329704497.556333 539 462 581 362 398 514
44.291650 1329704497.564628 538 464 583 358 399 527
44.328402 1329704497.572943 543 468 583 359 399 539
44.328402 1329704497.581320 550 472 582 362 401 552
44.379328 1329704497.596479 554 476 583 371 406 561
44.379328 1329704497.598973 556 479 587 374 413 567
44.408092 1329704497.605728 561 481 590 370 418 574
44.408092 1329704497.613922 573 487 595 368 422 583
44.449357 1329704497.622435 569 491 599 372 419 588
44.449357 1329704497.630504 567 492 600 379 417 584
44.491183 1329704497.644817 576 495 600 381 416 584
44.491183 1329704497.660545 585 496 604 387 420 589
44.524860 1329704497.673530 586 500 610 385 421 591
44.524860 1329704497.680686 579 503 613 381 415 589
44.566402 1329704497.689191 583 505 613 375 410 582
44.566402 1329704497.697276 591 512 611 374 405 577
44.608105 1329704497.705797 591 514 616 367 405 566
44.608105 1329704497.714151 572 519 619 354 395 552
44.649547 1329704497.722437 572 521 617 345 389 535
44.649547 1329704497.730564 582 525 616 339 386 526
44.683339 1329704497.739311 575 529 617 337 382 516
44.683339 1329704497.747373 564 529 616 338 378 498
44.724551 1329704497.759949 565 531 613 341 377 480
44.724551 1329704497.763992 571 534 613 341 377 470
44.766293 1329704497.772651 564 537 613 344 372 458
44.766293 1329704497.780528 553 538 613 356 366 440
44.816200 1329704497.789462 551 536 611 370 365 420
44.816200 1329704497.797506 553 533 610 375 364 409
