imu_t vicon_t accel_x accel_y accel_z gyro_x gyro_y gyro_z
0.548496 1329940002.501752 508 503 605 374 374 370
0.548496 1329940002.526959 508 503 606 374 375 371
0.548496 1329940002.584689 508 503 605 374 375 370
0.548496 1329940002.593388 508 502 606 375 377 370
0.548496 1329940002.601497 507 503 605 374 376 370
0.548496 1329940002.609585 507 503 605 375 378 371
0.607789 1329940002.617877 508 503 605 374 377 370
0.607789 1329940002.626059 508 503 606 375 377 371
0.607789 1329940002.634423 508 503 606 375 378 370
0.607789 1329940002.645066 509 503 605 374 376 371
0.607789 1329940002.670785 508 503 606 374 376 369
0.607789 1329940002.686560 508 502 606 374 376 370
0.669545 1329940002.698329 508 503 605 374 375 370
0.669545 1329940002.708512 508 503 605 373 375 370
0.669545 1329940002.726150 508 502 606 373 374 370
0.669545 1329940002.734062 507 502 606 374 375 370
0.669545 1329940002.745798 508 503 603 373 376 370
0.669545 1329940002.751092 508 503 604 375 377 370
0.727843 1329940002.759124 508 503 606 375 376 370
0.727843 1329940002.767999 508 503 606 374 377 370
0.727843 1329940002.776569 508 502 606 374 376 371
0.727843 1329940002.784802 508 502 605 375 376 370
0.727843 1329940002.804316 507 503 606 375 376 370
0.727843 1329940002.827267 507 503 606 374 376 370
0.799068 1329940002.838174 508 503 604 374 376 370
0.799068 1329940002.842972 508 502 605 374 376 372
0.799068 1329940002.850971 509 503 606 374 377 370
0.799068 1329940002.859425 509 503 605 375 375 371
0.799068 1329940002.867400 509 503 605 374 376 371
0.799068 1329940002.875809 508 502 606 375 377 370
0.852750 1329940002.892617 508 502 606 374 376 370
0.852750 1329940002.901018 507 503 605 375 377 370
0.852750 1329940002.909303 507 503 605 375 376 371
0.852750 1329940002.917204 507 503 605 375 376 371
0.852750 1329940002.931426 508 502 606 374 376 370
0.852750 1329940002.934061 508 502 605 373 375 371
0.915235 1329940002.947110 509 503 605 374 377 370
0.915235 1329940002.950665 509 503 606 374 377 371
0.915235 1329940002.959014 509 503 605 375 377 370
0.915235 1329940002.973647 508 502 605 373 376 370
0.915235 1329940002.975964 508 503 605 374 376 371
0.915235 1329940002.983860 508 503 606 374 377 370
0.969275 1329940002.992372 507 503 605 374 376 369
0.969275 1329940003.000532 507 503 605 373 375 370
0.969275 1329940003.008950 507 503 605 372 375 370
0.969275 1329940003.017031 507 503 605 373 376 371
0.969275 1329940003.025602 508 503 605 374 377 370
0.969275 1329940003.033823 508 503 605 374 376 370
1.030062 1329940003.042178 508 503 605 375 376 371
1.030062 1329940003.050577 509 502 606 374 378 370
1.030062 1329940003.059005 509 502 605 374 377 371
1.030062 1329940003.071278 508 503 606 375 377 370
1.030062 1329940003.077068 508 503 605 374 376 370
1.030062 1329940003.083923 508 503 606 374 375 370
1.097410 1329940003.100136 508 502 606 374 375 370
1.097410 1329940003.102008 507 503 606 374 374 371
1.097410 1329940003.109077 507 503 605 374 374 371
1.097410 1329940003.130551 507 503 605 374 376 371
1.097410 1329940003.133800 507 502 605 374 376 369
1.097410 1329940003.142146 508 503 605 374 377 371
1.158282 1329940003.150642 508 503 605 375 377 370
1.158282 1329940003.158691 508 503 606 375 378 370
1.158282 1329940003.167231 509 502 606 374 378 369
1.158282 1329940003.175285 508 503 606 375 377 370
1.158282 1329940003.192187 508 502 606 374 377 370
1.158282 1329940003.200654 508 503 606 373 376 370
1.218122 1329940003.209086 508 502 605 374 374 371
1.218122 1329940003.217316 508 503 605 374 375 371
1.218122 1329940003.226396 508 503 606 374 375 370
1.218122 1329940003.233789 508 503 605 373 375 371
1.218122 1329940003.242082 508 503 605 375 376 370
1.218122 1329940003.250580 508 503 605 374 376 370
1.271220 1329940003.258855 508 503 605 374 376 371
1.271220 1329940003.267323 508 502 606 375 377 370
1.271220 1329940003.275861 508 502 606 374 377 370
1.271220 1329940003.283793 508 503 606 375 378 370
1.271220 1329940003.295877 508 503 605 373 377 371
1.271220 1329940003.300238 508 503 605 373 376 369
1.327333 1329940003.308815 508 503 605 374 376 371
1.327333 1329940003.321742 508 503 606 374 375 370
1.327333 1329940003.327295 508 503 606 373 375 371
1.327333 1329940003.333757 508 503 606 374 375 369
1.327333 1329940003.342365 508 503 605 374 376 370
1.327333 1329940003.350297 508 503 605 375 377 370
1.393899 1329940003.359692 508 503 605 374 376 371
1.393899 1329940003.367246 508 503 606 374 378 370
1.393899 1329940003.375581 508 503 605 375 377 371
1.393899 1329940003.383692 508 503 605 373 377 370
1.393899 1329940003.392283 508 502 605 374 376 371
1.393899 1329940003.400404 508 503 605 373 376 370
1.456771 1329940003.409159 508 503 606 373 376 371
1.456771 1329940003.417130 508 503 605 374 376 370
1.456771 1329940003.425462 508 503 605 375 375 370
1.456771 1329940003.438024 508 502 605 374 376 371
1.456771 1329940003.442274 508 503 606 374 376 370
1.456771 1329940003.450273 508 502 606 375 375 370
1.510504 1329940003.458926 508 503 606 374 377 371
1.510504 1329940003.466905 507 503 605 374 376 370
1.510504 1329940003.475526 507 503 605 375 377 370
1.510504 1329940003.488501 508 503 605 374 378 370
1.510504 1329940003.492129 508 503 605 374 376 371
1.543485 1329940003.500369 508 503 605 375 376 371
1.543485 1329940003.508869 508 503 605 375 376 370
1.568539 1329940003.517084 508 503 605 373 376 370
1.601820 1329940003.525192 508 503 606 374 376 370
1.601820 1329940003.539161 508 503 605 374 376 370
1.627033 1329940003.552903 508 503 605 374 376 371
1.660548 1329940003.558281 508 503 605 374 376 371
1.660548 1329940003.566992 508 503 606 375 377 371
1.693488 1329940003.575305 508 502 606 375 376 371
1.718311 1329940003.583535 508 503 606 374 376 370
1.718311 1329940003.592048 508 503 605 375 376 370
1.751983 1329940003.609034 508 503 606 374 376 370
1.776661 1329940003.620096 508 503 605 375 377 370
1.776661 1329940003.625410 508 503 606 374 377 370
1.810033 1329940003.633488 508 503 605 375 376 370
1.847300 1329940003.641962 508 503 606 375 376 370
1.847300 1329940003.650245 508 503 605 374 375 371
1.868372 1329940003.658617 508 503 606 374 375 370
1.901657 1329940003.667130 508 503 605 375 377 370
1.901657 1329940003.681050 508 503 605 374 377 370
1.934709 1329940003.685381 508 503 606 374 376 370
1.962627 1329940003.705696 508 503 605 373 376 370
1.962627 1329940003.708434 508 503 605 374 376 371
1.993094 1329940003.717033 508 503 606 374 376 370
2.018414 1329940003.724897 508 503 605 374 376 370
2.018414 1329940003.740787 508 503 606 375 375 370
2.051299 1329940003.742820 508 503 605 374 376 371
2.075955 1329940003.750192 508 502 605 374 376 371
2.075955 1329940003.758540 508 503 606 374 377 371
2.109760 1329940003.767075 508 503 605 374 376 371
2.142962 1329940003.775036 508 503 606 375 376 370
2.142962 1329940003.783608 508 503 605 374 376 370
2.172782 1329940003.793911 508 503 606 374 377 370
2.204729 1329940003.805069 508 503 605 373 376 369
2.204729 1329940003.808556 508 503 606 374 376 370
2.234277 1329940003.816707 508 503 605 375 377 370
2.259337 1329940003.824765 508 503 605 374 376 371
2.259337 1329940003.833522 508 503 606 374 376 370
2.286783 1329940003.841817 507 503 606 374 376 370
2.317678 1329940003.850115 507 503 605 374 376 370
2.317678 1329940003.858786 508 503 605 374 376 370
2.362197 1329940003.870685 509 503 604 375 377 370
2.384490 1329940003.874762 508 503 605 374 376 370
2.384490 1329940003.883420 508 503 605 374 376 371
2.409059 1329940003.891912 508 502 605 374 376 371
2.442597 1329940003.900252 508 503 606 375 375 370
2.442597 1329940003.908551 507 503 606 374 376 370
2.467382 1329940003.916675 508 503 606 375 377 370
2.500894 1329940003.925140 509 503 605 374 377 371
2.500894 1329940003.933675 509 502 605 373 376 370
2.534154 1329940003.942056 508 503 606 374 376 370
2.588101 1329940003.949899 507 503 605 374 375 369
2.588101 1329940003.958456 507 503 605 374 376 370
2.609208 1329940003.968142 508 503 606 375 377 370
2.609208 1329940003.979647 508 502 606 374 377 371
2.655690 1329940003.991497 508 503 606 375 375 370
2.655690 1329940004.000144 508 503 605 374 375 371
2.692444 1329940004.008235 507 503 605 373 375 371
2.692444 1329940004.016367 507 503 605 373 376 370
2.733844 1329940004.024890 508 502 605 373 377 370
2.733844 1329940004.033329 509 503 606 374 378 370
2.775649 1329940004.050696 508 502 606 375 377 370
2.775649 1329940004.058337 509 502 605 375 376 370
2.813123 1329940004.066258 508 502 605 374 374 369
2.813123 1329940004.074899 507 503 605 375 375 370
2.850778 1329940004.083088 507 503 605 374 376 371
2.850778 1329940004.091313 507 502 605 374 378 370
2.891942 1329940004.099742 508 503 606 374 377 370
2.891942 1329940004.108372 508 502 605 375 377 370
2.933921 1329940004.116453 508 502 605 373 375 370
2.933921 1329940004.124631 508 502 605 374 376 371
2.967857 1329940004.133144 508 503 605 374 376 370
2.967857 1329940004.141454 508 503 605 374 377 370
3.009024 1329940004.149797 507 503 606 375 379 370
3.009024 1329940004.158177 508 503 606 374 376 370
3.050370 1329940004.166209 508 503 606 374 376 370
3.050370 1329940004.174566 509 502 606 374 377 370
3.091779 1329940004.183279 509 503 605 374 376 369
3.091779 1329940004.191519 507 503 605 374 376 370
3.133595 1329940004.203340 507 503 605 374 375 371
3.133595 1329940004.208022 508 503 605 374 376 370
3.174687 1329940004.216222 508 503 605 375 377 370
3.174687 1329940004.224519 508 503 606 375 377 371
3.208396 1329940004.232998 508 502 606 375 376 371
3.208396 1329940004.241146 508 503 606 374 376 370
3.249362 1329940004.254860 508 503 605 374 375 371
3.249362 1329940004.258041 507 503 605 373 376 370
3.291494 1329940004.266156 508 502 605 374 376 370
3.291494 1329940004.274721 508 503 605 374 377 370
3.335477 1329940004.283065 508 503 605 373 376 370
3.335477 1329940004.291224 508 502 606 374 375 371
3.379564 1329940004.299340 508 503 606 374 375 370
3.379564 1329940004.308130 508 503 606 374 375 370
3.408348 1329940004.315952 508 503 606 375 376 370
3.408348 1329940004.324504 507 503 606 374 376 370
3.450158 1329940004.332814 507 503 605 374 377 370
3.450158 1329940004.341325 508 503 605 375 378 371
3.491546 1329940004.349639 508 503 605 374 376 370
3.491546 1329940004.370029 508 503 605 375 375 371
3.533542 1329940004.374756 508 503 605 374 376 370
3.533542 1329940004.383034 508 503 605 374 376 370
3.577450 1329940004.391022 508 503 606 375 376 371
3.577450 1329940004.399300 508 503 606 374 376 371
3.608354 1329940004.407903 508 503 605 375 376 370
3.608354 1329940004.416127 508 503 605 373 376 370
3.649829 1329940004.424418 508 503 605 375 376 371
3.649829 1329940004.432743 507 503 606 374 375 371
3.691231 1329940004.440892 508 503 605 375 377 370
3.691231 1329940004.449257 508 503 606 374 377 370
3.732989 1329940004.457457 508 502 606 374 376 370
3.732989 1329940004.466110 508 503 605 375 377 370
3.774544 1329940004.485269 508 503 605 374 376 371
3.774544 1329940004.491071 508 503 605 375 377 370
3.807870 1329940004.498979 508 503 606 375 377 371
3.807870 1329940004.507547 508 502 605 375 376 371
3.860740 1329940004.515848 508 503 605 375 377 370
3.860740 1329940004.524240 508 503 605 376 376 370
3.891327 1329940004.533198 508 503 606 374 376 370
3.891327 1329940004.541129 508 503 605 374 376 369
3.935787 1329940004.549164 508 503 606 373 376 370
3.935787 1329940004.557450 508 502 606 374 376 370
3.978527 1329940004.565944 508 502 606 374 375 370
3.978527 1329940004.574023 508 502 605 375 376 371
4.007710 1329940004.582536 508 503 606 374 375 370
4.007710 1329940004.592694 508 502 606 373 377 370
4.049374 1329940004.598823 508 503 606 375 377 370
4.049374 1329940004.607250 508 503 605 374 376 370
4.091430 1329940004.617711 508 503 605 374 375 370
4.091430 1329940004.624119 508 503 605 375 376 371
4.132564 1329940004.632540 508 502 606 374 375 371
4.132564 1329940004.641166 508 503 605 375 377 371
4.174342 1329940004.649197 508 503 605 374 377 371
4.174342 1329940004.657343 508 503 605 375 375 370
4.216046 1329940004.665693 507 503 604 374 376 371
4.216046 1329940004.673949 507 502 605 375 377 370
4.249325 1329940004.682179 508 503 605 374 379 371
4.249325 1329940004.695412 507 503 606 375 378 370
4.290497 1329940004.701796 509 502 606 374 375 371
4.290497 1329940004.707254 511 502 606 374 375 371
4.331954 1329940004.715789 509 502 606 374 377 370
4.331954 1329940004.727388 507 503 605 374 377 369
4.374014 1329940004.732079 508 502 605 374 377 370
4.374014 1329940004.743900 508 504 605 374 379 371
4.415608 1329940004.748959 507 501 606 375 382 370
4.415608 1329940004.757027 508 505 604 376 386 368
4.449273 1329940004.765709 508 502 606 377 388 369
4.449273 1329940004.773696 507 502 605 376 388 370
4.490355 1329940004.781972 511 502 607 377 385 371
4.490355 1329940004.790908 511 504 605 378 391 371
4.532006 1329940004.809449 510 505 605 380 399 372
4.532006 1329940004.815497 516 507 607 380 400 373
4.594636 1329940004.823834 522 508 608 376 402 374
4.594636 1329940004.832029 519 509 612 374 402 372
4.617582 1329940004.840354 523 513 616 375 399 368
4.617582 1329940004.848947 526 514 616 375 394 365
4.648437 1329940004.884888 528 515 620 379 386 361
4.648437 1329940004.907207 526 515 621 379 373 354
4.688054 1329940004.920040 526 514 621 376 364 351
4.688054 1329940004.923474 523 517 623 377 358 349
4.732057 1329940004.931766 521 517 623 376 356 347
4.732057 1329940004.940509 518 518 622 378 355 348
4.773863 1329940004.958531 515 516 620 378 359 349
4.773863 1329940004.965346 517 515 620 379 365 353
4.815085 1329940004.973845 520 515 618 377 372 355
4.815085 1329940004.983413 518 513 618 374 375 353
4.848759 1329940004.990072 519 512 618 370 378 352
4.848759 1329940004.999644 516 511 616 369 383 354
4.892486 1329940005.007213 517 512 614 367 389 359
4.892486 1329940005.015335 518 509 614 365 389 360
4.932317 1329940005.023660 519 508 612 358 389 360
4.932317 1329940005.031828 519 509 611 358 390 359
4.977146 1329940005.039976 517 510 612 362 394 358
4.977146 1329940005.048576 516 505 610 370 394 357
5.015681 1329940005.056912 518 501 610 373 390 360
5.015681 1329940005.065151 518 500 609 370 383 361
5.048926 1329940005.073593 517 499 608 365 380 360
5.048926 1329940005.081719 519 503 608 364 380 360
5.090159 1329940005.090142 516 502 607 367 378 361
5.090159 1329940005.110696 516 499 606 370 369 360
5.132022 1329940005.115225 515 499 604 371 365 360
5.132022 1329940005.123544 516 503 602 374 367 357
5.184815 1329940005.131861 514 499 601 374 374 356
5.184815 1329940005.140005 514 496 597 379 373 355
5.215521 1329940005.148375 519 499 598 387 366 351
5.215521 1329940005.165435 518 498 601 383 369 346
5.248573 1329940005.178436 509 495 598 377 375 346
5.248573 1329940005.182010 509 496 596 382 379 349
5.290470 1329940005.190145 513 500 594 388 383 351
5.290470 1329940005.198537 513 500 592 391 378 353
5.331981 1329940005.206658 511 497 594 387 378 354
5.331981 1329940005.215306 504 495 598 384 384 356
5.373609 1329940005.223735 505 492 596 381 388 355
5.373609 1329940005.231708 510 495 595 381 386 355
5.406692 1329940005.240351 511 494 594 379 382 354
5.406692 1329940005.248515 505 500 596 381 380 358
5.448512 1329940005.256606 509 495 598 379 376 361
5.448512 1329940005.265363 510 490 597 382 367 357
5.490100 1329940005.274544 512 489 596 380 358 358
5.490100 1329940005.281778 507 492 598 374 353 360
5.531926 1329940005.290321 509 493 598 372 355 363
5.531926 1329940005.298438 507 492 596 373 358 362
5.573469 1329940005.306538 510 494 597 374 356 362
5.573469 1329940005.315441 508 494 596 373 354 364
5.615245 1329940005.335871 507 493 596 370 354 365
5.615245 1329940005.340486 504 492 597 367 360 367
5.648242 1329940005.348482 506 493 598 368 369 367
5.648242 1329940005.356724 507 495 598 370 375 366
5.690138 1329940005.364669 507 497 600 374 377 365
5.690138 1329940005.373478 508 497 601 373 378 363
5.731786 1329940005.382042 508 494 605 367 384 363
5.731786 1329940005.389668 512 497 607 369 385 361
5.773375 1329940005.398445 511 502 607 374 381 360
5.773375 1329940005.406580 509 502 606 379 376 362
5.814926 1329940005.414747 509 498 605 377 374 364
5.814926 1329940005.423467 508 494 607 374 377 366
5.848050 1329940005.431838 509 495 608 374 377 367
5.848050 1329940005.441014 509 497 608 375 375 368
5.889842 1329940005.448616 508 499 608 376 373 368
5.889842 1329940005.456628 507 498 607 373 376 370
5.927414 1329940005.464764 506 497 607 372 380 370
5.927414 1329940005.473480 504 497 610 369 384 370
5.973790 1329940005.481907 504 497 610 368 381 371
5.973790 1329940005.490341 501 500 610 367 376 372
6.014448 1329940005.498386 493 496 609 370 378 371
6.014448 1329940005.506579 479 492 613 372 390 370
6.050601 1329940005.514752 469 499 619 368 398 367
6.050601 1329940005.523474 451 501 621 361 388 362
6.088417 1329940005.531733 430 502 621 355 372 361
6.088417 1329940005.539609 414 504 618 349 365 359
6.140989 1329940005.548500 408 504 619 344 363 357
6.140989 1329940005.556426 411 505 622 345 355 358
6.173622 1329940005.564576 409 515 617 355 336 362
6.173622 1329940005.573230 418 511 605 364 321 374
6.219200 1329940005.581644 439 506 598 363 317 375
6.219200 1329940005.591526 479 492 601 355 315 374
6.248834 1329940005.614387 523 495 596 352 309 373
6.248834 1329940005.616015 550 498 598 375 333 366
6.290032 1329940005.622762 580 508 602 383 381 369
6.290032 1329940005.631427 603 494 604 386 398 385
6.331315 1329940005.639835 623 511 608 396 382 394
6.331315 1329940005.647820 623 526 610 421 374 394
6.372900 1329940005.656332 616 522 609 432 385 392
6.372900 1329940005.664457 596 514 614 420 400 383
6.414365 1329940005.672509 583 511 616 396 407 377
6.414365 1329940005.681240 578 508 616 383 398 376
6.450748 1329940005.689752 574 510 612 377 383 375
6.450748 1329940005.697566 576 516 603 367 366 373
6.489291 1329940005.706398 579 515 600 366 354 373
6.489291 1329940005.717636 574 513 595 375 348 374
6.530903 1329940005.722336 555 513 585 383 344 374
6.530903 1329940005.731233 542 508 584 382 351 365
6.572831 1329940005.739864 526 503 579 382 371 358
6.572831 1329940005.747704 514 494 577 390 383 359
6.614579 1329940005.756192 502 494 580 393 394 361
6.614579 1329940005.765530 498 506 585 385 412 355
6.647773 1329940005.772290 491 509 588 379 429 345
6.647773 1329940005.781441 483 499 592 383 439 352
6.689429 1329940005.789613 489 497 600 390 444 366
6.689429 1329940005.797746 493 508 604 384 440 374
6.727052 1329940005.806375 491 503 606 376 423 376
6.727052 1329940005.814349 486 480 612 369 404 379
6.773048 1329940005.822169 491 483 614 359 392 378
6.773048 1329940005.831153 491 496 615 357 383 374
6.806704 1329940005.841571 491 504 612 364 371 370
6.806704 1329940005.847990 494 497 611 370 363 367
6.848144 1329940005.858137 495 493 611 372 364 366
6.848144 1329940005.864274 492 496 613 377 374 364
6.889634 1329940005.902208 493 497 612 381 382 360
6.889634 1329940005.914228 495 500 611 385 383 363
6.932099 1329940005.916182 494 501 612 384 385 368
6.932099 1329940005.922757 499 500 614 381 389 372
6.974581 1329940005.931097 502 503 613 376 385 373
6.974581 1329940005.939226 505 500 611 370 378 373
7.013727 1329940005.947210 501 497 613 366 375 374
7.013727 1329940005.956197 503 495 612 364 377 374
7.047127 1329940005.966323 507 499 612 363 376 373
7.047127 1329940005.972824 507 502 613 364 374 373
7.089337 1329940005.983083 507 504 611 367 370 370
7.089337 1329940005.993982 508 504 607 371 363 372
7.130534 1329940006.005749 508 501 604 374 359 373
7.130534 1329940006.014396 508 501 605 377 363 372
7.172348 1329940006.022470 507 500 604 376 370 371
7.172348 1329940006.031157 508 501 605 375 375 371
7.213669 1329940006.039396 508 502 605 374 378 372
7.213669 1329940006.047317 510 500 606 376 378 371
7.247473 1329940006.056286 511 498 605 375 377 370
7.247473 1329940006.064234 510 500 606 375 379 371
7.288770 1329940006.072454 510 500 607 373 382 371
7.288770 1329940006.080929 509 500 608 372 384 370
7.330640 1329940006.100205 511 499 608 372 380 369
7.330640 1329940006.102186 511 501 608 376 374 369
7.372135 1329940006.115313 511 502 608 376 369 370
7.372135 1329940006.122577 509 500 608 377 367 372
7.418667 1329940006.131063 511 500 607 380 366 371
7.418667 1329940006.139359 511 502 606 379 365 370
7.447030 1329940006.147649 510 503 604 377 367 370
7.447030 1329940006.155753 510 501 603 375 368 371
7.488534 1329940006.163649 511 499 603 374 374 370
7.488534 1329940006.172527 510 500 604 378 378 369
7.533872 1329940006.181063 512 503 602 378 379 371
7.533872 1329940006.189208 512 503 602 379 378 371
7.571799 1329940006.197491 511 502 602 379 377 372
7.571799 1329940006.205626 512 501 603 380 379 370
7.613422 1329940006.214075 513 503 603 377 381 369
7.613422 1329940006.223667 511 503 602 378 382 368
7.656530 1329940006.230866 511 501 603 381 386 367
7.688263 1329940006.239037 511 501 603 382 387 367
7.729462 1329940006.247663 511 497 607 377 385 365
7.771815 1329940006.255697 512 497 609 377 384 367
7.813118 1329940006.268925 514 496 607 370 375 371
7.849775 1329940006.272375 514 499 607 362 381 370
7.889242 1329940006.280733 513 498 609 369 379 368
7.929488 1329940006.289151 513 496 610 377 378 365
7.970454 1329940006.297287 512 496 608 375 372 362
8.022350 1329940006.305439 511 497 608 372 372 363
8.054554 1329940006.313530 510 498 608 370 373 367
8.087703 1329940006.322362 503 495 613 372 381 368
8.129548 1329940006.330741 492 496 617 368 381 368
8.173632 1329940006.339236 467 498 618 369 377 363
8.213172 1329940006.347576 449 494 619 369 376 363
8.213172 1329940006.355352 440 495 618 370 367 370
8.255275 1329940006.363516 432 502 614 370 361 377
8.255275 1329940006.383378 425 500 610 359 362 381
8.288260 1329940006.389061 423 501 608 342 368 375
8.288260 1329940006.397147 435 503 606 330 368 368
8.329917 1329940006.405660 452 493 600 336 353 360
8.329917 1329940006.413929 479 501 593 339 341 358
8.381016 1329940006.422079 496 510 602 332 351 358
8.381016 1329940006.445647 527 504 605 326 358 355
8.408983 1329940006.458433 556 473 608 339 352 360
8.408983 1329940006.463990 589 502 607 351 343 379
8.458353 1329940006.472143 609 531 609 373 346 392
8.458353 1329940006.480402 628 526 609 400 349 386
8.487881 1329940006.488607 623 529 609 406 358 382
8.487881 1329940006.501202 602 533 610 407 376 376
8.529206 1329940006.505596 589 527 606 406 388 372
8.529206 1329940006.514135 579 520 606 402 386 369
8.570725 1329940006.522318 576 516 604 398 377 366
8.570725 1329940006.530312 575 515 601 393 369 365
8.612599 1329940006.538558 571 518 598 390 359 367
8.612599 1329940006.556023 565 514 595 391 357 367
8.654552 1329940006.568883 557 506 595 394 363 369
8.654552 1329940006.572078 548 506 597 389 371 372
8.687869 1329940006.580498 544 509 597 380 378 370
8.687869 1329940006.588680 534 510 594 378 383 366
8.729826 1329940006.596640 525 505 591 389 383 362
8.729826 1329940006.605380 515 489 596 393 387 355
8.770934 1329940006.614204 506 490 593 383 391 352
8.770934 1329940006.621922 506 501 593 379 393 353
8.812965 1329940006.630544 490 504 593 393 394 357
8.812965 1329940006.638481 490 501 594 392 395 360
8.851999 1329940006.646606 486 492 595 378 396 355
8.851999 1329940006.655302 479 487 598 367 400 351
8.899476 1329940006.670408 473 485 601 374 405 352
8.899476 1329940006.690276 469 491 605 391 406 361
8.929508 1329940006.697131 469 498 612 395 408 361
8.929508 1329940006.704983 468 494 615 381 406 355
8.971222 1329940006.713048 479 496 614 364 393 350
8.971222 1329940006.721883 484 498 616 363 383 348
9.012822 1329940006.730162 488 494 618 371 376 352
9.012822 1329940006.738734 493 493 617 379 374 360
9.054162 1329940006.746890 496 494 616 380 375 364
9.054162 1329940006.754677 502 493 616 379 375 367
9.087737 1329940006.763269 506 492 615 376 370 368
9.087737 1329940006.772005 507 493 612 378 363 369
9.128653 1329940006.780080 504 497 609 383 365 371
9.128653 1329940006.788418 503 497 608 383 372 371
9.170907 1329940006.797117 504 493 608 380 378 372
9.170907 1329940006.804825 505 491 609 376 379 372
9.218528 1329940006.813252 507 494 608 374 375 369
9.218528 1329940006.821806 509 495 606 374 370 368
9.254082 1329940006.829864 509 496 605 374 368 371
9.254082 1329940006.838374 509 497 606 375 372 371
9.295296 1329940006.847042 511 497 606 375 375 372
9.295296 1329940006.854709 511 497 605 372 375 375
9.328799 1329940006.863051 509 497 604 371 371 378
9.328799 1329940006.872005 509 498 604 373 369 378
9.370716 1329940006.879895 507 496 605 374 372 379
9.370716 1329940006.888671 509 495 604 373 375 378
9.412087 1329940006.896810 509 497 606 374 377 378
9.412087 1329940006.904760 508 497 606 377 379 374
9.453959 1329940006.913346 508 496 605 378 380 371
9.453959 1329940006.921769 509 496 605 375 379 373
9.495044 1329940006.929797 511 499 605 375 376 375
9.495044 1329940006.938481 510 498 606 374 375 375
9.528614 1329940006.946879 510 497 606 373 377 375
9.528614 1329940006.954765 511 497 606 371 377 375
9.570532 1329940006.963155 511 499 606 370 376 376
9.570532 1329940006.971992 512 500 606 370 376 374
9.611650 1329940006.980434 511 499 606 373 376 373
9.611650 1329940006.988387 511 501 606 377 377 373
9.653463 1329940006.996889 511 500 605 378 376 372
9.653463 1329940007.004605 510 499 605 377 377 371
9.694798 1329940007.013112 510 498 604 376 378 370
9.694798 1329940007.021959 510 499 605 376 378 370
9.728300 1329940007.037958 510 499 606 379 380 370
9.728300 1329940007.040047 510 499 607 378 380 370
9.769881 1329940007.046956 510 497 606 376 376 371
9.769881 1329940007.054722 511 497 606 372 373 371
9.811716 1329940007.063265 510 498 606 370 373 370
9.811716 1329940007.071760 511 498 606 372 373 371
9.849557 1329940007.086428 511 498 606 373 373 373
9.849557 1329940007.117330 511 497 605 373 374 372
9.891888 1329940007.140169 511 496 605 372 377 370
9.891888 1329940007.150645 510 497 605 372 378 371
9.928322 1329940007.155809 510 498 605 372 375 370
9.928322 1329940007.163385 510 498 605 374 372 372
9.969637 1329940007.171303 510 497 604 375 371 371
9.969637 1329940007.179645 508 498 605 376 376 371
10.011160 1329940007.197494 510 497 604 375 379 371
10.011160 1329940007.210276 510 497 605 374 379 370
10.057520 1329940007.213097 509 497 605 372 379 371
10.057520 1329940007.221497 510 497 605 373 377 372
10.094297 1329940007.232367 510 497 606 373 378 372
10.094297 1329940007.237836 511 497 607 374 379 373
10.127848 1329940007.248739 511 497 607 374 376 373
10.127848 1329940007.254818 510 497 607 374 374 372
10.173915 1329940007.263273 510 498 606 375 374 373
10.173915 1329940007.271679 510 498 607 377 376 373
10.210004 1329940007.279536 511 496 607 378 377 373
10.210004 1329940007.287836 512 496 607 375 375 372
10.252635 1329940007.296566 511 497 606 372 374 373
10.252635 1329940007.304789 510 498 606 371 373 373
10.288088 1329940007.313254 510 497 605 372 374 374
10.288088 1329940007.321549 509 497 604 371 375 374
10.327569 1329940007.329600 509 498 604 371 375 375
10.327569 1329940007.337840 507 499 604 371 375 375
10.368789 1329940007.346613 507 498 604 371 376 374
10.368789 1329940007.356082 506 497 605 372 375 374
10.411165 1329940007.363418 504 498 604 373 374 372
10.411165 1329940007.371398 503 496 605 373 376 372
10.452500 1329940007.379412 503 496 605 374 375 372
10.452500 1329940007.389446 502 496 607 375 378 371
10.494253 1329940007.396415 502 495 608 374 379 369
10.494253 1329940007.415206 499 496 609 373 378 370
10.527817 1329940007.428846 499 496 609 371 377 369
10.527817 1329940007.431078 496 497 609 372 373 370
10.569252 1329940007.437968 495 497 609 374 372 370
10.569252 1329940007.446368 495 498 608 375 373 369
10.610971 1329940007.455071 495 496 608 375 375 367
10.610971 1329940007.463110 493 496 608 372 377 366
10.653256 1329940007.477181 492 497 606 371 376 366
10.653256 1329940007.499772 490 498 606 369 375 366
10.698984 1329940007.511163 489 497 605 367 373 367
10.698984 1329940007.515547 490 497 607 364 371 367
10.727823 1329940007.521721 494 500 608 366 366 369
10.727823 1329940007.529828 494 500 607 369 363 371
10.768721 1329940007.538545 495 499 604 375 362 373
10.768721 1329940007.546809 496 498 605 376 367 372
10.810904 1329940007.554595 498 495 607 375 375 370
10.810904 1329940007.563058 503 499 606 376 373 367
10.852217 1329940007.571772 504 503 604 381 368 369
10.852217 1329940007.579812 507 500 600 384 364 369
10.894119 1329940007.588486 506 499 603 383 367 369
10.894119 1329940007.596574 508 500 606 377 370 367
10.938656 1329940007.604694 513 497 607 373 366 363
10.938656 1329940007.613038 509 496 602 370 358 360
10.968951 1329940007.621652 506 503 600 366 361 359
10.968951 1329940007.629768 506 500 601 363 371 358
11.010366 1329940007.638193 512 495 601 363 372 359
11.010366 1329940007.647162 516 499 598 367 366 365
11.063998 1329940007.654722 518 508 598 371 365 367
11.063998 1329940007.663050 515 503 605 374 383 365
11.093607 1329940007.671556 520 491 607 373 394 365
11.093607 1329940007.679605 527 498 607 376 389 368
11.126635 1329940007.688208 527 506 607 380 378 370
11.126635 1329940007.707503 524 502 606 379 374 372
11.168357 1329940007.712950 524 499 607 375 374 374
11.168357 1329940007.721147 523 503 608 369 373 376
11.211890 1329940007.729953 522 499 607 370 368 377
11.211890 1329940007.738225 522 502 606 375 363 378
11.251426 1329940007.746240 522 504 605 377 363 379
11.251426 1329940007.754812 524 504 603 378 366 379
11.293025 1329940007.763225 523 503 604 376 370 379
11.293025 1329940007.771250 526 505 605 374 375 376
11.326512 1329940007.779670 525 507 605 372 383 374
11.326512 1329940007.788207 523 505 607 376 391 372
11.369198 1329940007.796494 525 505 610 380 394 368
11.369198 1329940007.804788 529 505 612 381 388 368
11.409363 1329940007.813224 528 505 609 379 378 368
11.409363 1329940007.821395 525 502 606 374 366 369
11.451271 1329940007.829744 522 498 604 369 360 372
11.451271 1329940007.838293 522 501 604 368 362 373
11.492914 1329940007.846509 520 511 602 366 366 370
11.492914 1329940007.854814 519 508 601 372 370 367
11.528138 1329940007.879278 517 496 602 383 375 367
11.528138 1329940007.881964 517 495 605 382 384 369
11.569970 1329940007.888051 521 502 608 375 392 370
11.569970 1329940007.896295 523 503 609 377 394 367
11.608975 1329940007.904864 518 493 611 387 392 366
11.608975 1329940007.913112 520 488 608 390 387 366
11.651178 1329940007.921129 521 496 608 378 385 369
11.651178 1329940007.929584 520 503 608 369 385 371
11.690378 1329940007.938149 517 500 608 369 384 374
11.690378 1329940007.946222 515 497 606 373 380 374
11.726573 1329940007.954623 516 495 605 371 375 372
11.726573 1329940007.962998 513 497 604 367 372 370
11.768148 1329940007.971203 514 498 601 363 370 374
11.768148 1329940007.979606 512 500 599 365 370 379
11.824142 1329940007.988033 510 507 596 369 379 378
11.824142 1329940007.996503 507 502 597 373 389 376
11.851573 1329940008.004789 504 495 597 375 392 374
11.851573 1329940008.012979 503 498 596 372 392 376
11.893392 1329940008.021170 500 508 596 372 391 376
11.893392 1329940008.030868 496 506 600 379 394 372
11.934478 1329940008.037932 497 498 602 388 401 370
11.934478 1329940008.046247 499 495 604 390 406 374
11.967939 1329940008.054605 499 496 608 384 410 377
11.967939 1329940008.062751 498 498 609 379 404 380
12.009678 1329940008.071139 498 499 610 376 391 377
12.009678 1329940008.079226 500 497 612 374 384 375
12.050897 1329940008.087931 500 494 613 376 384 375
12.050897 1329940008.096234 502 493 612 374 381 375
12.092767 1329940008.104539 500 496 610 370 372 378
12.092767 1329940008.113061 498 498 609 371 365 377
12.128555 1329940008.121047 499 499 608 375 364 375
12.128555 1329940008.129297 498 496 608 377 368 373
12.167379 1329940008.138010 503 492 607 375 369 372
12.167379 1329940008.146098 502 495 605 371 369 373
12.208922 1329940008.154454 501 498 606 367 373 373
12.208922 1329940008.162747 501 496 607 369 375 372
12.250734 1329940008.171077 504 495 607 373 377 371
12.250734 1329940008.179386 508 494 607 373 376 373
12.286681 1329940008.187905 509 498 609 374 376 372
12.286681 1329940008.196146 506 499 610 373 377 372
12.333987 1329940008.204409 507 496 608 373 374 370
12.333987 1329940008.212832 509 495 607 372 370 368
12.367456 1329940008.220973 508 496 606 369 368 368
12.367456 1329940008.229369 508 497 606 368 369 367
12.408623 1329940008.237738 508 499 605 370 370 368
12.408623 1329940008.246113 507 500 605 372 374 368
12.450572 1329940008.254445 507 500 605 374 378 368
12.450572 1329940008.262679 509 500 605 372 381 368
12.487294 1329940008.270912 511 498 606 369 380 367
12.487294 1329940008.279184 509 501 607 374 375 366
12.541538 1329940008.287827 509 502 605 380 373 366
12.541538 1329940008.296110 508 501 604 379 374 367
12.567089 1329940008.304338 509 499 605 374 375 368
12.567089 1329940008.312690 509 499 606 372 375 368
12.608558 1329940008.321016 509 500 604 374 373 368
12.608558 1329940008.329261 508 500 604 375 372 370
12.653824 1329940008.337656 509 500 603 374 375 372
12.653824 1329940008.345922 510 501 605 373 376 372
12.691746 1329940008.354305 511 500 606 373 377 370
12.691746 1329940008.362576 511 499 606 373 377 370
12.733019 1329940008.370907 510 498 606 374 377 370
12.733019 1329940008.380696 510 499 606 378 375 371
12.766699 1329940008.387412 510 500 606 380 374 371
12.766699 1329940008.396054 510 499 606 380 375 370
12.808632 1329940008.404150 511 497 605 377 375 369
12.808632 1329940008.412575 511 498 606 374 377 370
12.857327 1329940008.427297 510 498 607 372 376 370
12.857327 1329940008.450066 510 499 606 373 374 369
12.891926 1329940008.462113 510 499 605 375 372 371
12.891926 1329940008.464899 511 499 605 374 372 370
12.933005 1329940008.496463 510 498 606 374 375 369
12.933005 1329940008.508088 509 498 605 373 377 370
12.967574 1329940008.513048 510 499 605 373 376 371
12.967574 1329940008.537195 511 498 605 375 377 372
13.008260 1329940008.560975 510 499 605 375 377 371
13.008260 1329940008.573197 511 498 605 374 378 371
13.049924 1329940008.579482 511 499 605 372 377 370
13.049924 1329940008.587651 510 500 606 374 375 371
13.091710 1329940008.596433 510 499 605 374 376 372
13.091710 1329940008.611148 510 499 606 374 377 373
13.132757 1329940008.614642 510 498 607 373 379 372
13.132757 1329940008.621243 510 499 606 373 378 373
13.174738 1329940008.629117 510 499 606 372 374 372
13.174738 1329940008.638060 510 498 606 374 372 372
13.207838 1329940008.646447 510 497 606 375 374 373
13.207838 1329940008.663780 510 499 606 375 378 373
13.249834 1329940008.671719 509 499 605 375 379 374
13.249834 1329940008.679889 510 498 605 372 378 374
13.291424 1329940008.688361 509 497 606 370 379 374
13.291424 1329940008.696402 508 497 608 369 382 375
13.332740 1329940008.704862 506 497 610 370 384 376
13.332740 1329940008.727785 501 495 610 370 380 378
13.374615 1329940008.741992 493 493 612 368 378 379
13.374615 1329940008.746470 481 494 614 366 381 382
13.407771 1329940008.754782 467 492 615 364 386 385
13.407771 1329940008.763045 456 492 616 362 383 387
13.458745 1329940008.771494 448 494 617 360 379 384
13.458745 1329940008.779567 440 494 622 360 383 381
13.486705 1329940008.787864 435 496 623 369 385 377
13.486705 1329940008.796227 431 502 622 380 382 375
13.533800 1329940008.804503 434 503 617 387 365 373
13.533800 1329940008.812735 442 509 614 385 347 378
13.575255 1329940008.821292 449 509 606 376 332 374
13.575255 1329940008.829336 452 500 593 369 320 368
13.610992 1329940008.837515 460 482 584 360 311 371
13.610992 1329940008.845812 504 480 586 352 312 384
13.648621 1329940008.854027 552 491 584 350 324 395
13.648621 1329940008.862218 580 496 583 371 341 386
13.690399 1329940008.871023 608 489 595 376 370 384
13.690399 1329940008.878756 640 488 603 365 392 390
13.732416 1329940008.887191 665 522 614 372 408 389
13.732416 1329940008.895681 639 539 629 410 436 379
13.776422 1329940008.903801 606 525 632 427 459 369
13.776422 1329940008.912113 593 520 628 406 455 372
13.807019 1329940008.923340 594 505 621 384 415 368
13.807019 1329940008.928438 594 503 615 381 359 368
13.848679 1329940008.937078 590 512 608 387 320 368
13.848679 1329940008.945593 580 514 599 390 303 368
13.886977 1329940008.953795 561 510 595 383 306 364
13.886977 1329940008.962022 543 512 592 374 321 359
13.939214 1329940008.973219 528 502 590 375 338 361
13.939214 1329940008.978458 520 491 587 378 355 366
13.974076 1329940008.986941 509 490 585 374 368 369
13.974076 1329940008.995764 495 496 581 367 376 374
14.008238 1329940009.003511 482 498 584 365 388 376
14.008238 1329940009.012143 472 498 587 372 404 374
14.059913 1329940009.020375 471 496 587 374 413 375
14.059913 1329940009.028910 462 492 592 370 414 380
14.099701 1329940009.037174 459 494 597 360 413 379
14.099701 1329940009.045490 465 494 602 350 414 374
14.128166 1329940009.053605 473 499 607 351 415 369
14.128166 1329940009.062227 474 504 611 368 416 366
14.189260 1329940009.070338 473 498 614 379 412 366
14.189260 1329940009.084547 477 494 618 377 403 371
14.207966 1329940009.087510 482 499 618 368 389 374
14.207966 1329940009.095704 487 502 619 367 377 375
14.248906 1329940009.103866 490 505 618 374 373 369
14.248906 1329940009.112815 494 507 616 381 376 365
14.290606 1329940009.120641 497 500 614 383 380 361
14.290606 1329940009.129056 500 494 611 382 378 358
14.331735 1329940009.137333 501 495 609 381 376 360
14.331735 1329940009.145632 504 501 608 385 376 365
14.373339 1329940009.153771 505 502 610 387 381 367
14.373339 1329940009.162195 507 497 611 384 382 368
14.415273 1329940009.170546 508 496 611 377 377 368
14.415273 1329940009.178729 508 498 610 372 373 369
14.448594 1329940009.187257 509 501 610 372 370 369
14.448594 1329940009.195498 509 499 608 377 370 368
14.490234 1329940009.203574 509 496 607 377 371 368
14.490234 1329940009.212192 508 496 606 377 372 368
14.530222 1329940009.220650 509 499 605 374 373 368
14.530222 1329940009.228710 510 498 604 372 373 368
14.572800 1329940009.244459 510 497 605 372 374 367
14.572800 1329940009.249755 510 499 603 373 375 368
14.615397 1329940009.253656 510 501 605 375 376 369
14.615397 1329940009.262147 510 500 605 371 376 370
14.648529 1329940009.270810 512 497 605 370 374 369
14.648529 1329940009.279032 511 498 605 371 373 371
14.689748 1329940009.287588 510 501 605 374 375 370
14.689748 1329940009.295919 510 500 605 373 375 370
14.731522 1329940009.303891 510 499 604 374 374 370
14.731522 1329940009.312618 509 499 603 374 374 370
14.773431 1329940009.320591 509 501 604 377 376 371
14.773431 1329940009.329274 510 501 605 378 378 369
14.814742 1329940009.337474 510 498 605 376 376 370
14.814742 1329940009.346389 510 498 605 373 376 368
14.848139 1329940009.353923 510 499 605 372 378 368
14.848139 1329940009.362379 511 499 605 373 380 369
14.890015 1329940009.370849 511 499 606 375 380 369
14.890015 1329940009.379036 511 499 606 375 380 369
14.931610 1329940009.387507 512 498 605 371 379 371
14.931610 1329940009.402093 511 498 606 369 378 370
14.980706 1329940009.404910 512 499 606 369 378 372
14.980706 1329940009.412301 512 501 606 372 375 372
15.014181 1329940009.420613 510 500 606 372 373 373
15.014181 1329940009.428778 510 499 605 371 373 373
15.047957 1329940009.436897 510 499 605 370 374 373
15.047957 1329940009.445217 510 500 605 370 379 373
15.089955 1329940009.454818 511 500 607 373 380 373
15.089955 1329940009.461992 511 501 607 374 379 371
15.138053 1329940009.470201 512 499 606 374 379 371
15.138053 1329940009.478483 512 500 607 373 380 370
15.172879 1329940009.487074 512 501 607 372 379 370
15.172879 1329940009.497304 512 500 607 373 377 369
15.210240 1329940009.522576 513 500 606 373 372 369
15.210240 1329940009.528364 511 500 606 374 371 369
15.247647 1329940009.536426 511 500 606 376 375 369
15.247647 1329940009.545187 511 500 606 377 375 368
15.289336 1329940009.553419 510 499 606 375 375 368
15.289336 1329940009.561820 510 498 605 374 376 368
15.331157 1329940009.569881 510 498 606 374 376 368
15.331157 1329940009.578564 511 499 606 374 376 368
15.374495 1329940009.586645 511 500 607 375 374 370
15.374495 1329940009.595149 511 500 605 374 373 371
15.414193 1329940009.603420 511 499 605 372 372 371
15.414193 1329940009.612014 511 499 605 372 374 371
15.447401 1329940009.632003 512 500 605 373 376 371
15.447401 1329940009.636485 511 500 605 375 375 371
15.488990 1329940009.645202 510 499 605 375 375 369
15.488990 1329940009.653288 510 499 604 374 376 369
15.530641 1329940009.661551 511 499 604 374 375 369
15.530641 1329940009.671875 510 501 604 377 377 370
15.575174 1329940009.678097 511 500 603 376 378 370
15.575174 1329940009.686636 511 498 604 374 377 370
15.614116 1329940009.694998 511 498 604 372 377 371
15.614116 1329940009.703374 512 499 605 373 377 371
15.647500 1329940009.711440 513 499 606 375 378 371
15.647500 1329940009.719934 512 499 605 376 378 371
15.693135 1329940009.728077 512 499 606 374 379 370
15.693135 1329940009.736423 512 500 607 374 379 370
15.737020 1329940009.745005 512 500 606 375 377 370
15.737020 1329940009.753154 511 499 606 376 374 371
15.772282 1329940009.761657 511 499 606 377 373 371
15.772282 1329940009.770197 511 499 605 375 374 372
15.813874 1329940009.784819 511 499 606 375 377 371
15.813874 1329940009.787993 510 499 606 375 379 371
15.855340 1329940009.795003 510 499 606 374 381 370
15.855340 1329940009.803182 511 499 607 374 381 370
15.888894 1329940009.811649 510 499 607 373 380 370
15.888894 1329940009.820127 510 499 607 375 377 371
15.930196 1329940009.828017 508 498 608 373 376 372
15.930196 1329940009.836569 505 497 608 374 374 374
15.972290 1329940009.844726 501 495 606 373 372 377
15.972290 1329940009.853348 494 496 607 370 372 379
16.006519 1329940009.861540 486 500 607 370 375 379
16.006519 1329940009.870195 482 501 608 372 376 376
16.047262 1329940009.878045 479 499 609 376 376 374
16.047262 1329940009.886572 475 495 613 379 377 373
16.088811 1329940009.894784 471 499 614 379 379 374
16.088811 1329940009.902997 468 501 617 376 380 374
16.130477 1329940009.911049 467 503 619 374 377 371
16.130477 1329940009.919827 472 504 617 367 364 371
16.172107 1329940009.941312 477 497 615 366 350 373
16.172107 1329940009.944648 481 502 613 370 348 376
16.213847 1329940009.953256 483 505 613 372 352 376
16.213847 1329940009.961531 485 507 610 367 355 371
16.251277 1329940009.969751 492 505 602 361 352 366
16.251277 1329940009.978031 499 498 598 358 352 367
16.288021 1329940009.986102 508 495 600 357 365 370
16.288021 1329940009.994236 513 493 600 363 377 373
16.329719 1329940010.003074 514 497 599 374 380 375
16.329719 1329940010.011248 519 504 595 383 380 379
16.371119 1329940010.019477 523 504 597 378 381 376
16.371119 1329940010.028165 528 495 599 369 380 371
16.412805 1329940010.044450 535 491 596 365 372 375
16.412805 1329940010.056712 530 498 593 374 364 382
16.446401 1329940010.071870 526 510 591 387 364 385
16.446401 1329940010.077943 529 514 591 387 371 384
16.488028 1329940010.086037 537 498 593 380 376 382
16.488028 1329940010.094584 542 497 595 383 381 379
16.529503 1329940010.102881 541 503 598 392 393 376
16.529503 1329940010.113863 545 506 605 392 407 374
16.571212 1329940010.119470 550 508 609 386 409 370
16.571212 1329940010.127976 547 505 614 377 409 366
16.612669 1329940010.136178 545 495 616 376 407 363
16.612669 1329940010.144389 544 499 615 378 398 363
16.654206 1329940010.152623 544 509 615 379 384 361
16.654206 1329940010.165302 543 509 615 380 368 359
16.687559 1329940010.169411 544 504 610 379 354 361
16.687559 1329940010.179275 541 501 605 384 344 364
16.729309 1329940010.185930 536 499 601 389 337 371
16.729309 1329940010.194456 533 502 601 387 340 376
16.766421 1329940010.202756 535 503 603 380 355 378
16.766421 1329940010.210967 530 498 602 375 373 376
16.810953 1329940010.219480 531 497 605 376 383 371
16.810953 1329940010.227683 532 499 607 379 389 367
16.854132 1329940010.236160 535 498 607 380 392 365
16.854132 1329940010.244278 538 501 605 374 392 361
16.887608 1329940010.252257 530 506 605 365 389 362
16.887608 1329940010.260749 528 499 603 365 385 369
16.929006 1329940010.269353 524 488 602 369 379 375
16.929006 1329940010.277363 518 487 600 367 370 376
16.976384 1329940010.285913 515 503 596 357 359 372
16.976384 1329940010.294524 506 508 597 356 354 371
17.013014 1329940010.302584 501 499 599 367 359 372
17.013014 1329940010.310767 502 491 596 375 365 372
17.046439 1329940010.319458 495 498 595 378 372 370
17.046439 1329940010.327417 487 504 596 374 382 366
17.087983 1329940010.335729 491 497 598 374 388 363
17.087983 1329940010.344467 492 493 600 382 393 364
17.137851 1329940010.352638 486 498 606 391 398 362
17.137851 1329940010.360658 483 505 608 393 401 360
17.170947 1329940010.372461 485 498 607 380 396 364
17.170947 1329940010.377177 489 487 609 368 389 367
17.212512 1329940010.385839 488 490 613 373 386 368
17.212512 1329940010.394328 487 496 614 378 389 367
17.257296 1329940010.402330 489 499 613 372 386 366
17.257296 1329940010.412103 491 495 612 361 378 367
17.287448 1329940010.419459 489 495 611 359 370 367
17.287448 1329940010.427280 490 501 609 365 366 366
17.328986 1329940010.435554 492 502 606 371 364 366
17.328986 1329940010.444108 496 497 604 371 365 366
17.370778 1329940010.452235 494 496 605 367 371 367
17.370778 1329940010.460582 495 500 607 369 379 369
17.415965 1329940010.469098 497 504 607 374 383 371
17.415965 1329940010.477252 499 502 607 380 384 370
17.453680 1329940010.493115 502 499 609 381 384 370
17.453680 1329940010.496231 504 498 610 380 382 367
17.486772 1329940010.502224 504 500 610 376 381 364
17.486772 1329940010.510623 507 501 609 374 377 363
17.528864 1329940010.545038 508 500 608 375 375 364
17.528864 1329940010.552428 507 499 608 380 377 364
17.569340 1329940010.560456 510 498 607 382 379 364
17.569340 1329940010.569427 510 498 607 378 379 367
17.611936 1329940010.577320 510 499 606 376 375 368
17.611936 1329940010.585697 510 498 605 377 372 369
17.653372 1329940010.595360 509 496 605 379 376 370
17.653372 1329940010.602288 510 497 605 376 380 371
17.687304 1329940010.610348 510 498 606 375 381 372
17.687304 1329940010.619252 510 498 606 372 379 370
17.728402 1329940010.627144 510 497 606 371 377 369
17.728402 1329940010.635408 510 499 607 373 377 371
17.779928 1329940010.643990 510 500 607 375 377 371
17.779928 1329940010.652271 510 500 606 376 375 371
17.811396 1329940010.660569 510 499 605 374 375 371
17.811396 1329940010.669351 509 498 606 373 378 371
17.853732 1329940010.677292 510 497 607 372 380 372
17.853732 1329940010.685592 511 498 606 372 377 372
17.886985 1329940010.696225 511 500 605 372 373 371
17.886985 1329940010.702280 509 501 605 371 373 371
17.937606 1329940010.710708 509 501 607 372 376 371
17.937606 1329940010.719665 509 501 608 373 378 371
17.969537 1329940010.727593 510 499 608 374 375 371
17.969537 1329940010.735878 508 498 607 374 376 370
18.011705 1329940010.746372 509 496 606 377 375 369
18.011705 1329940010.752929 510 497 607 378 375 370
18.053253 1329940010.760997 513 497 606 377 372 370
18.053253 1329940010.769627 512 498 605 376 371 368
18.086652 1329940010.778030 512 496 603 376 370 369
18.086652 1329940010.785883 511 497 604 374 374 371
18.128066 1329940010.794541 512 498 604 375 374 371
18.128066 1329940010.802673 512 498 605 376 373 372
18.171269 1329940010.810949 512 498 604 375 372 373
18.171269 1329940010.819715 510 497 604 372 373 373
18.215666 1329940010.828153 511 497 604 371 374 372
18.215666 1329940010.836045 511 498 603 372 375 372
18.252619 1329940010.845157 510 499 603 374 376 370
18.252619 1329940010.852643 510 499 603 373 376 372
18.294499 1329940010.860730 510 499 602 371 378 372
18.294499 1329940010.869635 510 499 604 372 380 372
18.327679 1329940010.877819 510 498 606 374 382 373
18.327679 1329940010.885984 510 499 606 377 380 371
18.369435 1329940010.903687 510 498 608 375 382 371
18.369435 1329940010.918761 508 496 609 371 384 369
18.417724 1329940010.931645 507 498 611 368 386 370
18.417724 1329940010.937714 502 498 612 366 386 371
18.456886 1329940010.944114 496 499 613 363 384 371
18.456886 1329940010.952339 485 499 615 360 381 372
18.494576 1329940010.960699 474 497 616 358 381 374
18.494576 1329940010.981079 466 494 618 358 377 375
18.527885 1329940010.986403 459 497 620 359 372 375
18.527885 1329940010.994066 454 503 620 361 371 373
18.569676 1329940011.002288 449 504 618 366 371 370
18.569676 1329940011.010581 442 506 615 365 375 364
18.611393 1329940011.018521 438 506 617 359 379 361
18.611393 1329940011.026790 446 501 612 354 371 361
18.653107 1329940011.037847 451 497 605 356 348 364
18.653107 1329940011.043556 453 502 596 369 330 370
18.689424 1329940011.051893 464 513 589 390 322 374
18.689424 1329940011.060250 475 511 588 389 331 370
18.727792 1329940011.068318 492 487 579 374 342 379
18.727792 1329940011.076808 523 480 575 370 347 381
18.768862 1329940011.088295 552 487 582 388 365 366
18.768862 1329940011.093436 587 496 593 392 393 361
18.810131 1329940011.101899 619 491 602 382 406 373
18.810131 1329940011.110540 642 518 619 385 410 381
18.851806 1329940011.118317 653 543 632 406 419 378
18.851806 1329940011.126879 629 527 635 409 427 369
18.893701 1329940011.135269 598 506 630 393 421 366
18.893701 1329940011.143498 591 500 626 371 402 369
18.929017 1329940011.152212 591 503 617 366 373 369
18.929017 1329940011.160491 591 509 606 369 343 367
18.968353 1329940011.168337 581 514 595 372 320 364
18.968353 1329940011.177255 569 511 587 369 318 358
19.006611 1329940011.185383 547 499 586 363 334 359
19.006611 1329940011.195424 534 504 584 359 353 365
19.052324 1329940011.202339 524 512 582 360 365 372
19.052324 1329940011.210607 515 504 585 372 375 370
19.093761 1329940011.218824 505 490 590 377 388 368
19.093761 1329940011.227084 492 490 588 374 395 371
19.127199 1329940011.235721 486 507 590 371 388 376
19.127199 1329940011.246660 481 510 599 376 390 376
19.176935 1329940011.252586 484 503 605 380 405 375
19.176935 1329940011.260970 474 497 605 377 418 371
19.210905 1329940011.268387 473 492 605 379 412 364
19.210905 1329940011.277138 472 486 605 383 395 362
19.252063 1329940011.285806 476 490 608 383 385 366
19.252063 1329940011.293774 477 500 611 379 389 376
19.293825 1329940011.305674 482 514 616 374 403 376
19.293825 1329940011.310545 488 509 618 368 405 370
19.326646 1329940011.318665 490 494 616 363 392 366
19.326646 1329940011.327011 493 491 616 367 376 366
19.368736 1329940011.335601 493 500 616 375 374 364
19.368736 1329940011.343701 497 503 616 379 377 362
19.410353 1329940011.360078 500 498 613 376 375 362
19.410353 1329940011.374698 500 498 610 369 367 363
19.451564 1329940011.377651 498 501 606 372 361 362
19.451564 1329940011.385313 499 506 603 381 362 365
19.492984 1329940011.394078 500 506 602 389 368 364
19.492984 1329940011.401956 502 499 604 388 371 362
19.526565 1329940011.422102 502 496 604 381 373 362
19.526565 1329940011.427198 503 497 603 377 375 364
19.568804 1329940011.435449 505 500 604 379 383 367
19.568804 1329940011.443933 509 499 606 381 391 369
19.609725 1329940011.452205 510 495 608 378 395 370
19.609725 1329940011.460250 513 496 608 373 393 369
19.651379 1329940011.468707 512 499 610 371 391 371
19.651379 1329940011.477121 513 501 611 373 388 370
19.693325 1329940011.485669 513 498 610 376 381 371
19.693325 1329940011.493959 514 497 608 377 374 372
19.726653 1329940011.501926 514 500 607 372 368 373
19.726653 1329940011.510073 512 500 606 369 370 371
19.768485 1329940011.518595 512 497 607 367 376 370
19.768485 1329940011.527332 513 498 606 369 378 372
19.819125 1329940011.535578 513 501 606 371 377 370
19.819125 1329940011.544031 513 501 607 374 374 371
19.851480 1329940011.551806 514 499 606 376 373 371
19.851480 1329940011.560363 514 499 607 379 377 371
19.893116 1329940011.568671 514 502 608 378 379 372
19.893116 1329940011.576859 514 503 608 375 378 371
19.926725 1329940011.585457 513 502 608 372 374 370
19.926725 1329940011.593713 513 500 606 370 372 370
19.979562 1329940011.601463 513 500 606 369 371 369
19.979562 1329940011.610410 512 501 606 371 372 369
20.009866 1329940011.618684 513 501 605 373 373 369
20.009866 1329940011.626805 512 500 604 373 374 369
20.051087 1329940011.635453 513 499 604 372 374 371
20.051087 1329940011.643698 513 500 605 372 375 370
20.096444 1329940011.651440 512 500 606 374 377 371
20.096444 1329940011.659993 513 499 606 376 375 372
20.134522 1329940011.668773 512 499 607 375 375 372
20.134522 1329940011.688429 513 500 607 374 373 372
20.167595 1329940011.693684 514 500 607 373 375 372
20.167595 1329940011.702037 513 500 607 374 375 372
20.209679 1329940011.709774 512 500 607 374 375 372
20.209679 1329940011.718508 512 500 606 374 373 371
20.255389 1329940011.726996 512 501 605 372 371 371
20.255389 1329940011.741315 512 501 605 371 370 370
20.292714 1329940011.744867 512 501 603 371 371 371
20.292714 1329940011.751993 512 500 603 373 372 372
20.334287 1329940011.759589 511 500 603 375 375 371
20.334287 1329940011.768273 511 500 603 375 377 371
20.376382 1329940011.776778 512 501 604 377 378 372
20.376382 1329940011.785094 512 501 606 378 380 373
20.409399 1329940011.800030 511 500 606 378 379 371
20.409399 1329940011.803124 512 499 606 375 377 372
20.450884 1329940011.810017 512 501 605 374 374 371
20.450884 1329940011.818053 512 501 605 372 374 371
20.492666 1329940011.826990 512 500 605 374 375 372
20.492666 1329940011.834688 512 499 606 373 377 372
20.534029 1329940011.843430 512 500 605 373 378 373
20.534029 1329940011.851571 512 501 605 373 377 373
20.567553 1329940011.859911 512 502 605 375 376 372
20.567553 1329940011.868237 513 501 604 375 376 372
20.609099 1329940011.876701 511 500 605 376 377 372
20.609099 1329940011.884665 512 500 605 375 379 372
20.650704 1329940011.893539 512 501 605 375 378 372
20.650704 1329940011.901750 512 501 606 376 380 371
20.692545 1329940011.909678 512 500 606 376 379 372
20.692545 1329940011.918130 512 501 606 372 376 372
20.742657 1329940011.926595 512 502 605 370 374 370
20.742657 1329940011.934797 512 500 606 371 375 371
20.767434 1329940011.943271 511 500 606 375 376 371
20.767434 1329940011.951606 513 502 606 375 375 372
20.808720 1329940011.959610 512 502 606 374 375 371
20.808720 1329940011.968029 513 501 607 373 375 371
20.851433 1329940011.976636 513 500 606 373 375 369
20.851433 1329940011.984782 513 501 606 374 375 371
20.899500 1329940011.996283 513 502 605 374 373 370
20.899500 1329940012.001965 513 501 605 375 373 371
20.933862 1329940012.009616 513 500 605 374 376 370
20.933862 1329940012.017800 512 500 604 373 378 370
20.975407 1329940012.026585 512 501 604 373 378 369
20.975407 1329940012.034465 513 502 604 374 380 370
21.011319 1329940012.043114 513 500 606 375 379 369
21.011319 1329940012.051446 512 500 607 376 379 370
21.050287 1329940012.060106 511 501 608 374 380 368
21.050287 1329940012.067883 508 500 610 371 380 368
21.091873 1329940012.076576 502 497 611 370 378 370
21.091873 1329940012.084530 493 497 612 369 375 370
21.133699 1329940012.093231 478 497 612 370 373 371
21.133699 1329940012.101380 463 495 615 368 374 371
21.175384 1329940012.109737 453 491 618 364 377 369
21.175384 1329940012.117703 450 494 622 360 380 367
21.209026 1329940012.126629 444 501 623 362 379 364
21.209026 1329940012.134452 439 504 618 362 371 363
21.254766 1329940012.145372 431 506 611 362 361 363
21.254766 1329940012.151535 434 500 603 370 355 364
21.292099 1329940012.159623 442 496 599 371 353 363
21.292099 1329940012.167588 447 489 595 355 354 370
21.333269 1329940012.176164 458 491 586 350 345 378
21.333269 1329940012.184483 483 495 580 359 331 381
21.366770 1329940012.197238 513 498 582 375 332 376
21.366770 1329940012.201011 539 496 589 381 350 373
21.407703 1329940012.209543 581 480 597 374 368 385
21.407703 1329940012.217584 618 489 602 374 370 397
21.449326 1329940012.226440 635 530 612 392 379 398
21.449326 1329940012.234227 641 540 618 411 400 386
21.491343 1329940012.243004 631 520 624 406 415 374
21.491343 1329940012.251043 603 519 631 380 425 370
21.539980 1329940012.259587 591 521 631 364 424 369
21.539980 1329940012.267444 583 511 626 370 408 365
21.566367 1329940012.276276 587 510 618 384 378 362
21.566367 1329940012.284340 582 513 610 388 348 363
21.607706 1329940012.292661 573 511 603 387 331 370
21.607706 1329940012.305315 558 509 597 386 329 374
21.649012 1329940012.309432 543 506 594 387 338 376
21.649012 1329940012.317811 536 502 594 392 347 379
21.691314 1329940012.326200 530 497 592 394 354 377
21.691314 1329940012.334476 515 493 588 387 359 374
21.741419 1329940012.342574 506 497 585 380 363 366
21.741419 1329940012.358410 498 503 587 378 369 364
21.768219 1329940012.372241 492 504 589 377 383 371
21.768219 1329940012.385329 490 504 590 379 392 375
21.811435 1329940012.400281 487 505 592 381 399 374
21.811435 1329940012.414527 482 494 593 375 404 371
21.849800 1329940012.417405 480 481 599 365 410 371
21.849800 1329940012.426137 473 493 605 361 414 377
21.892001 1329940012.433913 471 513 607 365 408 375
21.892001 1329940012.451005 478 506 611 364 395 369
21.933316 1329940012.462985 479 484 615 360 382 363
21.933316 1329940012.467577 481 488 615 362 374 362
21.966318 1329940012.475687 486 503 616 370 370 366
21.966318 1329940012.484150 484 508 614 371 368 371
22.010512 1329940012.492398 486 505 612 370 365 370
22.010512 1329940012.512020 491 501 608 372 366 368
22.049097 1329940012.517386 492 500 607 373 374 367
22.049097 1329940012.525750 493 495 609 372 383 366
22.088314 1329940012.533849 494 493 609 372 387 363
22.088314 1329940012.542519 496 498 608 370 386 362
22.132823 1329940012.550340 498 501 608 367 385 363
22.132823 1329940012.566154 499 504 608 366 383 368
22.174085 1329940012.580196 500 504 607 372 379 370
22.174085 1329940012.583927 502 504 604 379 373 372
22.207556 1329940012.591971 503 506 604 384 370 371
22.207556 1329940012.600699 504 506 604 380 373 371
22.255306 1329940012.608712 505 501 606 376 374 369
22.255306 1329940012.617057 507 497 605 374 371 368
22.290707 1329940012.625689 508 498 604 377 373 368
22.290707 1329940012.633851 509 502 603 380 378 370
22.335903 1329940012.642034 509 500 607 379 386 368
22.335903 1329940012.650633 510 497 609 375 389 367
22.373833 1329940012.658902 511 499 608 373 384 367
22.373833 1329940012.667261 513 501 607 374 377 370
22.407111 1329940012.684276 511 502 607 379 373 369
22.407111 1329940012.696555 510 499 607 382 374 370
22.448869 1329940012.702552 510 498 608 381 376 370
22.448869 1329940012.715231 510 499 607 376 374 369
22.490737 1329940012.718208 510 501 607 374 373 369
22.490737 1329940012.732623 509 501 606 373 374 370
22.532202 1329940012.747433 510 499 606 373 377 369
22.532202 1329940012.768341 509 500 607 371 379 371
22.573675 1329940012.775337 510 502 607 371 377 372
22.573675 1329940012.783380 510 501 606 371 376 371
22.615476 1329940012.792320 510 500 606 372 376 370
22.615476 1329940012.800123 510 500 605 374 376 369
22.646602 1329940012.810704 511 500 605 375 375 370
22.646602 1329940012.825452 511 500 605 375 374 369
22.690307 1329940012.837571 510 499 605 374 374 369
22.690307 1329940012.843915 510 499 606 373 375 369
22.732134 1329940012.850255 509 500 606 374 375 369
22.732134 1329940012.858211 510 501 605 375 376 370
22.773787 1329940012.866983 510 500 607 374 376 370
22.773787 1329940012.875111 509 499 607 371 376 371
22.809786 1329940012.883452 509 501 607 371 374 371
22.809786 1329940012.891645 510 502 607 373 372 369
22.848554 1329940012.900514 509 502 606 375 371 369
22.848554 1329940012.908308 509 501 606 374 371 370
22.896466 1329940012.916950 509 501 605 374 372 369
22.896466 1329940012.925168 509 501 605 373 372 370
22.932018 1329940012.933874 508 501 605 374 374 369
22.932018 1329940012.941749 510 500 605 375 374 369
22.973601 1329940012.952203 510 500 606 378 374 369
22.973601 1329940012.958168 510 499 605 378 374 369
23.021688 1329940012.966823 510 499 605 376 374 371
23.021688 1329940012.975194 510 501 605 375 374 371
23.048237 1329940012.983347 510 501 606 374 374 371
23.048237 1329940012.991637 510 501 605 376 375 372
23.089744 1329940013.000291 509 500 605 376 375 372
23.089744 1329940013.008364 508 500 605 373 376 372
23.131555 1329940013.017024 509 501 605 370 376 371
23.131555 1329940013.028924 507 502 605 370 373 371
23.173442 1329940013.033540 507 501 604 372 373 370
23.173442 1329940013.042032 506 501 603 375 372 369
23.210961 1329940013.050567 507 501 604 377 373 369
23.210961 1329940013.058846 506 501 605 378 377 369
23.247971 1329940013.067227 507 501 605 377 377 370
23.247971 1329940013.075988 507 500 605 379 375 370
23.289870 1329940013.083862 506 498 606 379 377 370
23.289870 1329940013.091954 507 496 607 380 381 371
23.331440 1329940013.100600 508 498 608 378 381 370
23.331440 1329940013.108650 509 497 608 374 377 373
23.368991 1329940013.117117 508 498 607 372 376 373
23.368991 1329940013.125461 508 500 607 368 376 375
23.406472 1329940013.133736 507 500 607 365 379 375
23.406472 1329940013.141958 508 502 607 365 379 376
23.448037 1329940013.150629 507 502 607 365 377 376
23.448037 1329940013.158600 508 501 607 370 378 376
23.490105 1329940013.167425 507 502 608 374 380 372
23.490105 1329940013.175827 505 499 609 372 382 372
23.531224 1329940013.183789 504 496 610 370 380 371
23.531224 1329940013.191971 500 499 609 369 375 371
23.571466 1329940013.200536 491 503 610 371 373 370
23.571466 1329940013.208529 476 498 612 369 377 370
23.606900 1329940013.221772 467 491 614 361 379 370
23.606900 1329940013.225484 459 497 615 349 377 371
23.648290 1329940013.233578 451 505 618 351 376 376
23.648290 1329940013.241879 447 508 623 361 382 379
23.690182 1329940013.250689 441 509 625 368 387 377
23.690182 1329940013.258614 444 506 621 370 381 375
23.731400 1329940013.273404 445 503 610 370 360 373
23.731400 1329940013.276645 444 503 595 370 336 371
23.773412 1329940013.291429 448 509 584 369 323 364
23.773412 1329940013.306133 449 513 580 357 325 359
23.814039 1329940013.320875 454 486 580 348 332 352
23.814039 1329940013.325226 473 483 573 335 330 356
23.847931 1329940013.333664 491 496 570 334 331 373
23.847931 1329940013.342087 533 493 579 361 344 379
23.888918 1329940013.350458 593 478 592 400 368 387
23.888918 1329940013.357888 643 505 610 410 394 405
23.930676 1329940013.367167 664 533 630 418 421 402
23.930676 1329940013.374918 644 549 646 434 457 382
23.972158 1329940013.383558 612 530 642 416 473 373
23.972158 1329940013.391761 588 519 632 393 450 382
24.013614 1329940013.400234 583 498 624 393 412 376
24.013614 1329940013.408004 576 499 615 407 375 370
24.047370 1329940013.416871 580 508 607 411 352 373
24.047370 1329940013.425027 575 509 601 404 339 376
24.089082 1329940013.433071 569 502 598 393 329 378
24.089082 1329940013.441865 554 495 596 382 327 379
24.140300 1329940013.461412 545 499 595 376 329 376
24.140300 1329940013.475823 538 499 591 368 335 373
24.171932 1329940013.483735 531 493 590 361 345 375
24.171932 1329940013.491658 518 494 592 353 357 373
24.206289 1329940013.499954 507 495 592 352 366 369
24.206289 1329940013.508173 503 497 589 355 368 367
24.248340 1329940013.516394 499 498 589 356 367 368
24.248340 1329940013.524241 493 499 589 358 370 366
24.290808 1329940013.533209 482 503 588 358 375 367
24.290808 1329940013.541506 474 507 588 364 384 368
24.330704 1329940013.549537 460 506 593 376 400 374
24.330704 1329940013.558040 460 501 598 379 412 379
24.372716 1329940013.566636 456 502 600 372 411 376
24.372716 1329940013.586727 457 505 606 367 406 365
24.419663 1329940013.591377 460 506 613 369 409 358
24.419663 1329940013.599566 465 501 619 374 417 355
24.446950 1329940013.607471 474 499 622 375 415 358
24.446950 1329940013.616331 481 503 623 374 403 361
24.488896 1329940013.624378 487 506 622 376 389 362
24.488896 1329940013.633570 492 508 621 376 380 360
24.530174 1329940013.641012 496 505 621 372 370 361
24.530174 1329940013.649333 496 500 617 366 357 359
24.572098 1329940013.657647 497 501 609 362 347 357
24.572098 1329940013.666310 494 504 604 358 344 356
24.613911 1329940013.674357 494 508 601 357 349 354
24.613911 1329940013.682632 499 503 600 363 360 355
24.646872 1329940013.691063 500 496 601 374 367 358
24.646872 1329940013.699421 499 498 599 389 373 360
24.688591 1329940013.707734 502 504 597 403 375 361
24.688591 1329940013.715975 504 505 599 409 380 363
24.729551 1329940013.724216 505 497 601 404 386 363
24.729551 1329940013.734606 504 491 603 392 391 364
24.770834 1329940013.740812 505 494 604 379 397 370
24.770834 1329940013.749201 507 499 606 374 397 374
24.813263 1329940013.757764 508 500 609 372 398 375
24.813263 1329940013.765976 509 498 612 366 395 376
24.846579 1329940013.774093 510 497 612 362 389 376
24.846579 1329940013.784473 510 499 611 365 380 377
24.888368 1329940013.790892 508 503 610 369 377 376
24.888368 1329940013.799366 506 502 610 371 377 373
24.930070 1329940013.807675 507 499 608 373 376 372
24.930070 1329940013.815811 507 502 608 374 371 371
24.971513 1329940013.823940 506 502 607 378 370 372
24.971513 1329940013.831951 506 503 605 381 370 372
25.012939 1329940013.840879 505 501 603 378 371 373
25.012939 1329940013.849170 507 500 603 375 374 372
25.056140 1329940013.857449 506 500 603 370 377 372
25.056140 1329940013.865718 507 501 604 370 381 371
25.091146 1329940013.874028 509 502 605 370 382 373
25.091146 1329940013.891794 509 502 605 374 383 373
25.130132 1329940013.899126 508 500 606 375 382 371
25.130132 1329940013.907352 507 500 606 373 380 372
25.171492 1329940013.915864 507 502 608 373 380 373
25.171492 1329940013.924151 509 501 607 376 375 372
25.212673 1329940013.932124 509 500 606 379 370 373
25.212673 1329940013.941589 509 500 605 379 369 371
25.246281 1329940013.949094 509 502 604 379 375 371
25.246281 1329940013.957326 508 502 604 376 378 371
25.296233 1329940013.965627 508 501 605 376 380 370
25.296233 1329940013.973940 509 500 606 374 379 371
25.343524 1329940013.982222 509 501 606 376 376 369
25.343524 1329940013.990428 509 502 607 376 375 370
25.371262 1329940013.999040 509 502 605 374 374 371
25.371262 1329940014.007315 509 502 605 372 374 371
25.406921 1329940014.015683 509 501 605 371 375 372
25.406921 1329940014.023993 509 502 605 373 377 372
25.446294 1329940014.032293 509 501 606 377 377 370
25.446294 1329940014.050829 508 501 606 377 379 371
25.487358 1329940014.057412 508 499 605 377 376 369
25.487358 1329940014.065332 509 499 605 373 373 370
25.529455 1329940014.073821 508 500 605 371 373 371
25.529455 1329940014.082298 508 502 604 373 375 370
25.570695 1329940014.092548 507 500 604 374 378 370
25.570695 1329940014.107448 508 500 605 377 379 371
25.612561 1329940014.131603 508 501 605 374 378 370
25.612561 1329940014.145362 508 501 605 373 376 371
25.646550 1329940014.149238 509 500 606 373 375 371
25.646550 1329940014.157290 509 500 605 375 377 371
25.687610 1329940014.165753 509 501 605 376 380 369
25.687610 1329940014.173909 509 500 606 375 380 369
25.729336 1329940014.185526 509 500 606 376 378 368
25.729336 1329940014.200425 509 500 605 374 374 369
25.769000 1329940014.213038 509 500 605 376 373 370
25.769000 1329940014.227856 508 501 604 378 376 371
25.812401 1329940014.234670 509 500 604 377 379 371
25.812401 1329940014.240643 509 499 605 373 382 370
25.854490 1329940014.249214 510 499 606 372 384 371
25.854490 1329940014.257761 509 501 607 373 384 372
25.891037 1329940014.265448 510 501 607 376 380 370
25.891037 1329940014.274189 510 500 606 375 376 369
25.940531 1329940014.282677 509 500 605 374 375 369
25.940531 1329940014.290829 509 500 605 372 376 368
25.970374 1329940014.299476 509 501 604 373 378 367
25.970374 1329940014.307759 509 501 605 375 377 366
26.012670 1329940014.325317 509 501 605 375 378 368
26.012670 1329940014.346959 510 501 607 374 379 369
26.060508 1329940014.350166 511 501 607 373 378 370
26.060508 1329940014.357423 510 500 607 373 374 370
26.087373 1329940014.365939 510 500 607 372 375 371
26.087373 1329940014.374273 510 501 606 373 375 371
26.129019 1329940014.382698 510 500 606 373 376 370
26.129019 1329940014.392960 511 500 605 374 376 371
26.175002 1329940014.399235 510 501 606 375 373 370
26.175002 1329940014.407220 509 501 605 377 375 370
26.212475 1329940014.416119 509 499 604 376 374 370
26.212475 1329940014.424263 509 501 604 374 375 370
26.253805 1329940014.432781 508 501 605 374 376 371
26.253805 1329940014.444058 508 500 603 374 375 371
26.287359 1329940014.449146 507 500 603 373 375 372
26.287359 1329940014.457226 505 500 602 373 377 371
26.328540 1329940014.465812 505 499 604 374 379 370
26.328540 1329940014.474134 504 498 604 371 380 370
26.378565 1329940014.482570 505 498 604 370 380 371
26.378565 1329940014.490659 505 500 605 367 382 373
26.411756 1329940014.499184 501 501 607 365 382 373
26.411756 1329940014.507644 499 500 610 366 381 373
26.453707 1329940014.515938 496 504 611 367 378 371
26.453707 1329940014.524140 490 506 611 368 376 371
26.495673 1329940014.532401 482 504 613 373 376 372
26.495673 1329940014.540579 478 500 616 377 382 370
26.528912 1329940014.549040 476 499 619 379 385 368
26.528912 1329940014.557312 474 502 620 381 379 366
26.570453 1329940014.565578 476 506 619 380 372 366
26.570453 1329940014.573610 477 505 619 376 366 365
26.612158 1329940014.581783 478 498 618 371 364 367
26.612158 1329940014.590096 478 496 614 369 362 369
26.645522 1329940014.598524 482 504 610 370 357 371
26.645522 1329940014.606974 486 505 607 369 353 369
26.687156 1329940014.615436 488 493 605 372 352 367
26.687156 1329940014.623647 491 496 603 375 353 364
26.728436 1329940014.631876 495 502 598 383 353 365
26.728436 1329940014.651242 496 508 596 384 358 370
26.769494 1329940014.656641 494 501 593 381 359 372
26.769494 1329940014.665145 500 494 592 386 358 365
26.805157 1329940014.673658 505 492 589 394 360 361
26.805157 1329940014.681999 499 494 587 392 365 366
26.852507 1329940014.690048 496 491 580 389 365 376
26.852507 1329940014.705658 509 493 578 391 365 380
26.886361 1329940014.719628 521 492 584 392 373 380
26.886361 1329940014.723765 540 494 592 387 390 381
26.927776 1329940014.731746 574 495 601 373 410 378
26.927776 1329940014.740282 585 500 613 364 428 377
26.969189 1329940014.748135 577 511 624 362 447 372
26.969189 1329940014.759233 575 515 626 370 447 368
27.011039 1329940014.765153 568 512 621 377 423 364
27.011039 1329940014.773439 559 506 619 378 394 364
27.052558 1329940014.781877 550 503 618 375 382 366
27.052558 1329940014.790328 543 500 620 372 384 372
27.097927 1329940014.798158 552 504 617 374 374 375
27.097927 1329940014.809398 554 507 611 380 353 375
27.127495 1329940014.815252 552 504 608 383 336 377
27.127495 1329940014.823598 554 500 605 384 338 380
27.169099 1329940014.831768 552 495 601 385 353 376
27.169099 1329940014.840378 543 495 597 389 371 373
27.210523 1329940014.848474 533 496 599 385 390 372
27.210523 1329940014.856700 537 497 601 375 404 371
27.251900 1329940014.864772 535 498 597 370 408 369
27.251900 1329940014.873360 527 499 596 375 399 367
27.294074 1329940014.881754 525 498 599 373 386 364
27.294074 1329940014.890198 527 496 601 361 372 363
27.327543 1329940014.898581 524 502 598 348 359 367
27.327543 1329940014.913537 507 502 596 348 351 375
27.369708 1329940014.916407 502 500 599 353 354 375
27.369708 1329940014.923842 502 491 599 357 357 375
27.416218 1329940014.931401 498 496 596 352 358 378
27.416218 1329940014.939753 498 507 595 348 355 378
27.452378 1329940014.948421 486 496 596 354 358 378
27.452378 1329940014.956644 480 482 599 360 370 383
27.486411 1329940014.965173 474 495 599 361 384 385
27.486411 1329940014.973257 474 514 600 358 394 375
27.527466 1329940014.981582 472 515 602 356 394 364
27.527466 1329940014.989636 471 505 606 363 390 362
27.569627 1329940014.998459 479 505 607 377 389 364
27.569627 1329940015.009967 484 511 610 383 395 370
27.616704 1329940015.014810 486 505 613 377 400 374
27.616704 1329940015.023169 488 502 614 369 391 374
27.652228 1329940015.031332 490 501 613 369 373 369
27.652228 1329940015.039517 495 506 614 372 363 366
27.695701 1329940015.048347 498 504 612 373 361 363
27.695701 1329940015.064216 500 499 611 372 361 361
27.726895 1329940015.067025 499 502 610 372 366 359
27.726895 1329940015.073261 499 504 610 373 371 360
27.777252 1329940015.081309 504 505 609 378 377 361
27.777252 1329940015.089809 508 505 609 382 378 363
27.810045 1329940015.098300 508 504 609 385 379 364
27.810045 1329940015.106650 507 502 608 383 376 365
27.851769 1329940015.114680 507 500 607 381 374 365
27.851769 1329940015.123425 508 502 606 379 375 366
27.893337 1329940015.131212 507 502 606 377 377 366
27.893337 1329940015.139440 508 501 606 377 377 367
27.926902 1329940015.148102 507 501 605 375 374 368
27.926902 1329940015.156547 507 503 604 374 373 368
27.968852 1329940015.176552 507 503 604 374 374 369
27.968852 1329940015.181609 506 503 605 373 378 371
28.010493 1329940015.189409 507 503 605 372 380 373
28.010493 1329940015.197823 508 504 605 371 378 373
28.054838 1329940015.206504 508 503 605 371 378 371
28.054838 1329940015.214429 507 501 607 372 378 371
28.103602 1329940015.231994 508 502 606 373 377 371
28.103602 1329940015.255687 509 502 607 374 377 370
28.126979 1329940015.258529 509 502 608 375 375 369
28.126979 1329940015.264916 508 503 607 377 375 369
28.168478 1329940015.272727 508 503 607 378 373 369
28.168478 1329940015.281273 510 501 606 376 371 370
28.209901 1329940015.289456 508 502 606 374 372 371
28.209901 1329940015.305173 508 504 606 375 373 372
28.253270 1329940015.308053 509 504 605 374 373 370
28.253270 1329940015.331451 509 504 605 374 373 371
28.293010 1329940015.339526 508 503 606 375 374 372
28.293010 1329940015.347555 509 503 606 377 374 372
28.326289 1329940015.356149 508 503 606 378 374 371
28.326289 1329940015.365015 507 503 605 379 371 370
28.368102 1329940015.380005 508 504 605 378 371 369
28.368102 1329940015.382620 507 503 605 376 374 369
28.408496 1329940015.389816 506 502 606 375 379 369
28.408496 1329940015.397545 507 502 606 376 381 368
28.451397 1329940015.405957 508 503 605 377 377 370
28.451397 1329940015.414670 507 503 605 376 372 371
28.493036 1329940015.422836 507 503 605 374 373 370
28.493036 1329940015.431338 506 501 604 373 376 371
28.526308 1329940015.439436 507 501 605 371 377 371
28.526308 1329940015.447629 507 503 606 373 375 370
28.577003 1329940015.455774 507 503 605 374 373 370
28.577003 1329940015.465106 507 503 605 378 373 369
28.609830 1329940015.472995 507 502 605 376 375 368
28.609830 1329940015.487513 506 502 605 376 378 369
28.651486 1329940015.490433 507 503 605 377 379 368
28.651486 1329940015.497753 507 503 605 377 378 368
28.692879 1329940015.505604 507 502 606 376 376 370
28.692879 1329940015.514683 508 500 607 374 376 371
28.736667 1329940015.522721 507 501 607 374 376 371
28.736667 1329940015.530910 507 502 607 372 376 371
28.767785 1329940015.539469 507 502 606 372 374 371
28.767785 1329940015.547383 507 502 606 372 374 371
28.809254 1329940015.555735 507 503 606 375 374 370
28.809254 1329940015.564869 506 503 606 374 375 371
28.851025 1329940015.572651 506 503 606 375 374 372
28.851025 1329940015.581975 506 502 605 373 371 371
28.900799 1329940015.589350 505 502 604 372 371 370
28.900799 1329940015.597397 506 502 604 371 373 370
28.926204 1329940015.605923 505 503 604 374 375 370
28.926204 1329940015.614491 506 503 604 374 377 371
28.967655 1329940015.622754 506 502 604 375 376 372
28.967655 1329940015.630980 507 501 605 375 376 372
29.009198 1329940015.638976 507 501 606 374 374 372
29.009198 1329940015.647586 506 502 606 373 373 371
29.050725 1329940015.655615 506 502 606 373 373 371
29.050725 1329940015.664671 506 502 604 375 371 372
29.092798 1329940015.672575 506 502 605 374 373 370
29.092798 1329940015.686334 506 502 605 375 376 371
29.126168 1329940015.688923 506 503 607 374 378 371
29.126168 1329940015.697511 507 503 606 375 376 372
29.167358 1329940015.705631 507 503 606 378 374 371
29.167358 1329940015.714492 508 502 606 378 372 371
29.209394 1329940015.722640 507 503 605 376 374 371
29.209394 1329940015.730693 506 502 606 375 376 372
29.250047 1329940015.738797 507 502 606 374 377 371
29.250047 1329940015.747454 507 502 606 375 375 373
29.292405 1329940015.755506 506 502 605 374 373 373
29.292405 1329940015.764491 505 502 606 373 374 373
29.327561 1329940015.772484 506 502 606 372 375 373
29.327561 1329940015.780977 506 502 605 373 374 373
29.367055 1329940015.789247 506 502 605 373 374 372
29.367055 1329940015.797425 505 502 604 374 373 372
29.408773 1329940015.805609 505 501 605 375 375 372
29.408773 1329940015.814248 506 501 604 374 375 373
29.450654 1329940015.822578 505 501 604 375 376 370
29.450654 1329940015.838276 503 502 605 374 377 370
29.492350 1329940015.843308 503 501 605 375 379 370
29.492350 1329940015.847189 501 500 606 373 380 370
29.533658 1329940015.855506 498 498 608 374 381 369
29.533658 1329940015.864193 491 498 611 375 383 367
29.569968 1329940015.872648 481 499 615 375 387 364
29.569968 1329940015.880761 473 499 620 368 388 361
29.608642 1329940015.889062 465 502 622 362 381 363
29.608642 1329940015.897345 462 504 622 361 367 364
29.650579 1329940015.905449 458 504 620 366 355 368
29.650579 1329940015.914083 457 505 616 371 349 370
29.692498 1329940015.922860 449 506 611 377 348 368
29.692498 1329940015.930647 441 508 609 390 352 367
29.732347 1329940015.938618 441 508 603 398 347 364
29.732347 1329940015.947161 448 504 594 396 336 361
29.766964 1329940015.955645 451 501 584 391 322 359
29.766964 1329940015.964179 450 506 578 382 320 358
29.808244 1329940015.981527 451 502 577 372 331 355
29.808244 1329940015.994691 457 493 575 370 344 359
29.850154 1329940016.009581 483 487 571 373 343 364
29.850154 1329940016.024092 531 479 580 378 347 373
29.891052 1329940016.031032 566 478 593 382 365 387
29.891052 1329940016.039009 614 491 605 385 383 396
29.933075 1329940016.056432 640 511 620 395 405 393
29.933075 1329940016.071229 634 530 638 409 444 372
29.966049 1329940016.074245 594 521 642 393 494 361
29.966049 1329940016.080744 575 496 637 374 506 363
30.009502 1329940016.088996 562 483 632 371 487 368
30.009502 1329940016.097984 571 499 627 380 444 373
30.049543 1329940016.105959 572 511 622 375 396 375
30.049543 1329940016.133653 573 511 619 361 366 379
30.091379 1329940016.157267 573 507 608 354 341 381
30.091379 1329940016.171322 567 508 599 362 318 384
30.137432 1329940016.174236 552 504 599 373 314 378
30.137432 1329940016.180093 532 496 599 373 328 367
30.166181 1329940016.188466 533 493 598 369 339 365
30.166181 1329940016.196945 536 497 594 371 338 370
30.209735 1329940016.205287 527 504 589 373 332 364
30.209735 1329940016.213199 507 507 585 374 335 358
30.249874 1329940016.221511 485 501 585 375 352 364
30.249874 1329940016.230260 480 494 587 374 376 374
30.297188 1329940016.248793 475 493 588 370 394 377
30.297188 1329940016.255175 470 498 591 364 392 378
30.326036 1329940016.263337 459 501 591 360 383 373
30.326036 1329940016.271645 453 499 593 364 377 376
30.366159 1329940016.279654 450 493 599 370 386 384
30.366159 1329940016.288149 453 495 602 367 400 389
30.408254 1329940016.298974 461 503 606 357 408 384
30.408254 1329940016.305115 465 504 606 344 406 376
30.449774 1329940016.313489 467 495 607 345 395 369
30.449774 1329940016.321511 474 494 609 358 382 366
30.491662 1329940016.329779 483 501 612 366 379 370
30.491662 1329940016.338175 485 506 613 367 381 374
30.533205 1329940016.346706 487 509 612 366 385 374
30.533205 1329940016.355021 491 508 610 369 385 370
30.566187 1329940016.363419 497 507 609 374 382 370
30.566187 1329940016.371392 500 508 609 378 376 370
30.607895 1329940016.379759 498 508 608 381 370 368
30.607895 1329940016.390459 496 507 607 382 366 367
30.649062 1329940016.396505 497 505 605 378 365 365
30.649062 1329940016.409698 498 503 604 377 369 366
30.692894 1329940016.413314 499 503 604 378 375 368
30.692894 1329940016.421318 500 503 603 381 377 368
30.732506 1329940016.429953 500 505 602 381 376 369
30.732506 1329940016.438561 500 503 602 379 378 368
30.774444 1329940016.446652 501 502 604 377 382 368
30.774444 1329940016.461928 504 502 607 377 385 368
30.807677 1329940016.475626 504 501 608 378 385 368
30.807677 1329940016.479829 503 501 609 378 385 368
30.855163 1329940016.488159 504 504 609 378 382 369
30.855163 1329940016.496929 505 504 610 377 380 369
30.891040 1329940016.504919 506 501 609 374 377 368
30.891040 1329940016.515791 506 501 608 373 374 368
30.932224 1329940016.530921 505 504 606 374 374 369
30.932224 1329940016.545713 505 504 604 377 374 368
30.974084 1329940016.560495 503 503 604 378 378 368
30.974084 1329940016.582510 503 500 604 374 382 368
31.012005 1329940016.589157 505 500 604 372 382 368
31.012005 1329940016.596980 505 502 604 372 380 368
31.049029 1329940016.605582 504 503 605 373 379 367
31.049029 1329940016.622376 504 503 604 377 379 367
31.091265 1329940016.637728 504 501 604 378 381 370
31.091265 1329940016.650804 504 501 605 378 383 369
31.126406 1329940016.656861 505 502 605 377 384 369
31.126406 1329940016.663777 505 503 606 375 384 369
31.174040 1329940016.671985 506 502 606 376 381 368
31.174040 1329940016.685636 506 501 606 376 379 370
31.207231 1329940016.711921 506 501 606 378 379 369
31.207231 1329940016.715158 505 502 606 378 379 370
31.249272 1329940016.721416 506 503 606 377 379 370
31.249272 1329940016.730831 506 503 606 376 378 371
31.290325 1329940016.738565 507 502 607 376 378 370
31.290325 1329940016.746137 506 501 607 376 378 371
31.326086 1329940016.754781 505 502 607 377 377 371
31.326086 1329940016.763434 505 502 606 376 375 371
31.373990 1329940016.771601 506 501 605 375 374 371
31.373990 1329940016.779747 506 500 605 373 375 370
31.407011 1329940016.788436 506 500 605 374 376 371
31.407011 1329940016.803065 506 502 605 374 375 370
31.448899 1329940016.806051 506 503 605 375 376 371
31.448899 1329940016.813307 507 503 604 374 376 370
31.490345 1329940016.821428 507 503 604 374 376 370
31.490345 1329940016.829930 507 502 604 373 375 371
31.531398 1329940016.837966 507 502 605 373 377 371
31.531398 1329940016.846177 506 503 605 374 378 370
31.573314 1329940016.854461 506 503 605 375 378 369
31.573314 1329940016.863219 505 502 605 374 378 370
31.606705 1329940016.871431 505 501 605 372 378 370
31.606705 1329940016.879741 505 501 605 372 377 370
31.648274 1329940016.887955 505 502 604 372 376 371
31.648274 1329940016.896112 504 503 605 373 374 370
31.690386 1329940016.904362 504 503 605 375 376 371
31.690386 1329940016.913010 505 501 605 375 378 371
31.734888 1329940016.921261 505 500 605 373 378 372
31.734888 1329940016.929753 505 501 606 373 377 371
31.773121 1329940016.938044 506 501 606 374 378 371
31.773121 1329940016.952371 507 501 607 374 378 372
31.818951 1329940016.955559 507 500 606 374 378 373
31.818951 1329940016.963215 508 500 607 374 379 372
31.866570 1329940016.971424 507 501 607 374 376 371
31.866570 1329940016.979704 507 502 607 374 374 371
31.890095 1329940016.988004 507 501 606 374 373 372
31.890095 1329940016.995960 506 501 606 375 373 372
31.931475 1329940017.004400 507 501 605 375 375 372
31.931475 1329940017.012938 507 502 605 373 375 371
31.973144 1329940017.021261 506 502 605 370 376 371
31.973144 1329940017.029781 506 502 606 372 374 372
32.023874 1329940017.037928 506 502 606 374 374 372
32.023874 1329940017.053051 506 502 606 377 374 373
32.047600 1329940017.056354 506 501 605 375 372 373
32.047600 1329940017.063041 506 501 605 373 373 373
32.089657 1329940017.071609 506 502 605 374 374 374
32.089657 1329940017.079889 506 502 605 374 373 373
32.131278 1329940017.087885 506 502 605 376 374 373
32.131278 1329940017.095579 505 501 606 376 374 371
32.173139 1329940017.104441 505 502 605 374 375 372
32.173139 1329940017.112784 505 503 605 373 374 372
32.209089 1329940017.121365 505 503 605 373 374 373
32.209089 1329940017.129545 505 502 605 374 374 373
32.260146 1329940017.138106 506 502 605 375 374 372
32.260146 1329940017.158638 505 502 605 376 373 373
32.292792 1329940017.162666 505 502 605 376 375 372
32.292792 1329940017.171222 504 501 605 376 377 372
32.330933 1329940017.179523 504 501 605 375 376 372
32.330933 1329940017.187789 505 501 605 374 375 372
32.372557 1329940017.195981 504 502 604 374 373 372
32.372557 1329940017.204448 503 502 604 374 373 372
32.431242 1329940017.212504 504 501 604 373 374 373
32.431242 1329940017.221081 503 502 604 373 375 372
32.449011 1329940017.229496 502 502 604 374 375 372
32.449011 1329940017.237936 502 501 604 376 378 372
32.495369 1329940017.245939 501 501 605 375 380 372
32.495369 1329940017.254225 500 502 605 373 379 371
32.530963 1329940017.263915 497 501 605 373 377 372
32.530963 1329940017.271053 493 500 607 374 377 374
32.572256 1329940017.279101 489 498 607 373 380 373
32.572256 1329940017.287555 485 501 609 371 382 374
32.606015 1329940017.296202 479 504 610 368 382 372
32.606015 1329940017.304021 475 504 613 369 382 368
32.646623 1329940017.315558 467 505 616 367 384 361
32.646623 1329940017.321037 462 505 617 366 384 355
32.689328 1329940017.329237 459 505 614 368 375 351
32.689328 1329940017.337505 455 506 606 372 360 350
32.731101 1329940017.346037 454 507 598 377 347 354
32.731101 1329940017.353874 454 512 595 385 345 358
32.772924 1329940017.362777 447 507 594 386 355 357
32.772924 1329940017.370849 447 492 590 383 361 359
32.814163 1329940017.378903 463 491 584 377 355 367
32.814163 1329940017.387344 480 497 581 367 352 374
32.847100 1329940017.395968 487 501 583 358 365 377
32.847100 1329940017.404427 502 485 585 357 382 378
32.888437 1329940017.412719 525 471 585 368 391 386
32.888437 1329940017.424534 567 480 590 376 394 403
32.937430 1329940017.428582 598 510 600 383 402 408
32.937430 1329940017.437400 629 521 615 387 428 393
32.982314 1329940017.445775 626 516 633 382 456 381
32.982314 1329940017.454328 610 508 646 380 469 369
33.013341 1329940017.462604 591 504 646 384 456 359
33.013341 1329940017.477132 581 509 642 385 424 354
33.046386 1329940017.481730 575 513 631 385 384 356
33.046386 1329940017.503510 580 510 620 384 339 359
33.088315 1329940017.506434 578 510 607 385 312 362
33.088315 1329940017.512732 568 510 599 382 305 361
33.134443 1329940017.520656 550 503 594 381 316 364
33.134443 1329940017.529139 545 504 591 387 332 366
33.177631 1329940017.536946 536 506 592 394 346 366
33.177631 1329940017.545422 520 502 592 398 359 364
33.212960 1329940017.554138 511 492 594 393 368 368
33.212960 1329940017.562374 508 491 597 386 374 379
33.250041 1329940017.570758 505 499 601 377 379 385
33.250041 1329940017.578965 494 503 599 369 380 384
33.288255 1329940017.586965 489 498 600 369 380 379
33.288255 1329940017.606218 482 491 604 372 384 376
33.331187 1329940017.612728 478 485 605 373 393 375
33.331187 1329940017.620645 478 502 606 365 397 378
33.375579 1329940017.629228 476 513 607 359 396 374
33.375579 1329940017.637555 470 500 608 364 388 371
33.413057 1329940017.645240 468 487 609 370 375 374
33.413057 1329940017.660866 472 498 608 366 367 377
33.446797 1329940017.675137 472 513 606 357 362 376
33.446797 1329940017.678890 475 514 606 349 361 372
33.488700 1329940017.687615 474 503 606 352 363 364
33.488700 1329940017.695655 475 496 605 363 368 360
33.530244 1329940017.703383 483 497 605 374 372 358
33.530244 1329940017.712095 492 501 606 378 375 359
33.571755 1329940017.727907 495 500 606 373 374 361
33.571755 1329940017.732976 495 500 606 370 371 363
33.619124 1329940017.737475 497 501 605 373 368 363
33.619124 1329940017.745645 501 503 604 378 364 367
33.650807 1329940017.753480 501 501 602 378 362 372
33.650807 1329940017.762253 500 499 603 378 364 377
33.688849 1329940017.770512 499 501 602 379 365 377
33.688849 1329940017.778999 498 500 600 378 367 375
33.728773 1329940017.787128 499 497 600 377 368 374
33.728773 1329940017.795643 500 495 599 374 369 374
33.771507 1329940017.803035 500 499 599 377 374 372
33.771507 1329940017.812065 502 503 600 380 380 370
33.813282 1329940017.830908 501 501 602 379 388 372
33.813282 1329940017.837151 502 499 604 377 389 372
33.846420 1329940017.845473 502 500 606 376 388 371
33.846420 1329940017.853880 504 501 607 377 383 371
33.887918 1329940017.861553 504 500 607 377 379 372
33.887918 1329940017.870310 504 500 607 378 377 372
33.944024 1329940017.885809 503 502 607 380 377 371
33.944024 1329940017.897161 503 501 607 379 379 370
33.971726 1329940017.904059 503 500 606 378 377 369
33.971726 1329940017.912221 503 499 606 376 379 369
34.010648 1329940017.920224 502 500 606 374 380 370
34.010648 1329940017.928808 502 501 606 375 379 371
34.047640 1329940017.937062 503 502 605 375 379 369
34.047640 1329940017.952661 504 501 603 374 375 369
34.087654 1329940017.955467 503 500 603 375 374 369
34.087654 1329940017.962158 502 501 603 375 378 370
34.129712 1329940017.970047 504 501 603 376 382 369
34.129712 1329940017.978840 504 500 604 376 383 369
34.171216 1329940017.986883 504 500 606 377 384 368
34.171216 1329940017.995355 504 500 606 375 382 369
34.208612 1329940018.003653 505 501 606 374 381 368
34.208612 1329940018.011860 505 500 606 374 378 367
34.246287 1329940018.019960 505 500 605 374 377 369
34.246287 1329940018.028623 504 498 605 374 378 368
34.287842 1329940018.037030 503 499 604 375 378 370
34.287842 1329940018.046486 503 500 604 375 379 369
34.329397 1329940018.053394 504 499 605 375 378 370
34.329397 1329940018.061937 504 499 605 374 379 368
34.375509 1329940018.070614 504 499 606 373 381 368
34.375509 1329940018.078434 504 499 606 375 381 368
34.416720 1329940018.086788 505 500 607 376 379 367
34.416720 1329940018.097842 505 500 606 376 378 367
34.446205 1329940018.103303 505 499 606 376 377 368
34.446205 1329940018.111780 505 499 606 376 377 368
34.487366 1329940018.120396 505 499 605 372 378 368
34.487366 1329940018.128498 504 499 606 374 379 368
34.538412 1329940018.136879 504 500 606 373 378 369
34.538412 1329940018.144823 505 500 606 373 378 370
34.568952 1329940018.153565 504 499 607 374 377 369
34.568952 1329940018.161482 504 499 605 374 375 369
34.612487 1329940018.170192 505 499 605 374 375 369
34.612487 1329940018.178396 505 500 605 375 375 370
34.654423 1329940018.186593 504 499 605 376 376 369
34.654423 1329940018.201423 505 498 604 375 377 371
34.689837 1329940018.215844 505 498 605 375 379 371
34.689837 1329940018.228983 505 499 606 375 379 371
34.729403 1329940018.236844 506 498 605 376 380 370
34.729403 1329940018.245138 506 498 607 376 378 370
34.770852 1329940018.259884 505 499 607 377 376 371
34.770852 1329940018.264903 505 500 606 375 376 369
34.811979 1329940018.270079 506 499 605 373 374 370
34.811979 1329940018.278116 505 498 605 373 374 371
34.850476 1329940018.286676 505 498 605 375 375 370
34.850476 1329940018.295145 505 500 605 376 375 371
34.887226 1329940018.303291 505 499 604 376 374 372
34.887226 1329940018.311636 505 498 605 375 375 372
34.928702 1329940018.319700 505 496 606 374 375 372
34.928702 1329940018.328371 505 498 606 373 378 372
34.974342 1329940018.336633 505 499 605 373 377 371
34.974342 1329940018.344821 505 499 605 374 376 372
35.011904 1329940018.353071 505 499 605 374 375 372
35.011904 1329940018.361427 505 499 604 373 374 372
35.060648 1329940018.369674 505 499 606 373 376 372
35.060648 1329940018.378113 505 500 606 372 376 372
35.096792 1329940018.386335 505 500 606 374 377 373
35.096792 1329940018.395062 506 499 606 374 376 372
35.133700 1329940018.403289 506 499 605 374 375 371
35.133700 1329940018.411487 505 499 605 372 376 371
35.169984 1329940018.419646 506 500 606 373 377 371
35.169984 1329940018.428162 506 499 605 374 378 372
35.211673 1329940018.436600 505 499 606 373 377 371
35.211673 1329940018.444776 505 499 606 373 376 371
35.253708 1329940018.452901 505 499 606 372 374 371
35.253708 1329940018.461378 505 499 606 375 376 371
35.287684 1329940018.469648 505 499 606 376 374 371
35.287684 1329940018.477875 504 499 605 376 374 370
35.328925 1329940018.486294 505 499 604 375 374 370
35.328925 1329940018.495036 505 499 604 373 373 370
35.370048 1329940018.502846 505 499 605 373 376 371
35.370048 1329940018.513506 505 499 606 375 378 371
35.411571 1329940018.526318 505 499 606 376 378 372
35.411571 1329940018.529221 505 500 605 375 375 372
35.453166 1329940018.536245 505 499 606 374 374 371
35.453166 1329940018.544600 505 499 605 373 373 371
35.488013 1329940018.552932 504 499 604 373 375 370
35.488013 1329940018.566945 505 499 604 373 376 370
35.528195 1329940018.570014 505 500 604 375 377 372
35.528195 1329940018.577977 505 499 605 376 377 370
35.569705 1329940018.586364 506 500 605 377 377 371
35.569705 1329940018.594937 507 499 605 376 376 371
35.611349 1329940018.603303 506 499 605 376 375 372
35.611349 1329940018.611652 506 499 605 374 376 371
35.658537 1329940018.619920 505 499 605 375 377 370
35.658537 1329940018.628181 506 499 605 377 379 370
35.686312 1329940018.636774 506 499 605 377 379 370
35.686312 1329940018.645392 506 499 605 375 377 369
35.728249 1329940018.653220 505 500 605 373 375 369
35.728249 1329940018.661755 505 499 605 372 377 369
35.768977 1329940018.670334 505 499 604 372 377 368
35.768977 1329940018.678102 505 499 604 374 379 369
35.817775 1329940018.686657 506 499 605 377 380 369
35.817775 1329940018.694957 507 499 605 376 382 369
35.852733 1329940018.703084 507 499 606 375 380 369
35.852733 1329940018.711502 507 499 606 374 380 368
35.885922 1329940018.720776 506 500 606 375 377 369
35.885922 1329940018.727975 506 499 605 374 377 369
35.938946 1329940018.736687 506 498 604 374 375 369
35.938946 1329940018.745256 505 497 605 373 377 371
35.977378 1329940018.753056 504 497 605 374 378 369
35.977378 1329940018.761452 504 498 605 374 378 370
36.010514 1329940018.774033 505 498 605 374 378 371
36.010514 1329940018.777837 504 500 605 373 380 371
36.052251 1329940018.786344 504 500 605 373 379 371
36.052251 1329940018.794636 505 499 605 374 380 371
36.093897 1329940018.802628 505 499 607 374 380 371
36.093897 1329940018.810744 505 499 608 376 382 371
36.132945 1329940018.819500 506 499 608 379 380 370
36.132945 1329940018.827275 507 499 607 379 377 371
36.168735 1329940018.835722 507 499 606 378 375 370
36.168735 1329940018.844410 507 499 605 373 375 370
36.210078 1329940018.852481 508 498 605 372 375 370
36.210078 1329940018.860743 507 498 606 372 376 370
36.252289 1329940018.876706 507 499 606 374 377 370
36.252289 1329940018.879087 506 498 606 377 378 371
36.293505 1329940018.885713 505 498 607 376 376 370
36.293505 1329940018.893968 501 498 607 377 376 369
36.326873 1329940018.902392 498 498 608 376 374 369
36.326873 1329940018.910890 491 496 608 374 373 369
36.368500 1329940018.919100 480 494 608 372 374 369
36.368500 1329940018.927263 468 492 608 371 372 369
36.410360 1329940018.935563 460 491 610 369 374 370
36.410360 1329940018.943933 451 494 612 369 376 370
36.456930 1329940018.952015 442 498 612 370 375 370
36.456930 1329940018.960697 437 502 610 373 366 366
36.493922 1329940018.969136 435 500 605 373 354 362
36.493922 1329940018.977175 436 493 607 368 353 362
36.527126 1329940018.985249 434 498 610 365 363 365
36.527126 1329940018.993935 432 504 605 375 368 368
36.569448 1329940019.002024 429 502 595 390 350 366
36.569448 1329940019.010749 440 491 585 402 324 365
36.609718 1329940019.018901 471 495 577 400 305 365
36.609718 1329940019.026803 509 490 575 388 306 363
36.651361 1329940019.035532 559 462 581 385 328 368
36.651361 1329940019.044063 589 477 592 385 367 386
36.692871 1329940019.052102 625 529 611 399 424 396
36.692871 1329940019.062338 659 536 627 422 475 381
36.730605 1329940019.069094 653 505 639 418 502 364
36.730605 1329940019.076942 610 485 648 394 501 369
36.767853 1329940019.085469 591 494 651 372 471 375
36.767853 1329940019.093918 582 504 645 361 420 377
36.813980 1329940019.101990 579 506 634 354 368 372
36.813980 1329940019.110539 576 505 618 344 333 368
36.850948 1329940019.118928 576 502 603 336 313 371
36.850948 1329940019.126803 568 506 595 337 306 374
36.892517 1329940019.135512 552 502 590 346 310 373
36.892517 1329940019.143892 538 490 590 356 323 368
36.926166 1329940019.152229 531 489 587 364 339 363
36.926166 1329940019.162340 528 495 583 366 354 365
36.970148 1329940019.168921 515 504 582 372 362 367
36.970148 1329940019.176923 504 502 585 384 371 370
37.009433 1329940019.185445 500 496 589 387 383 373
37.009433 1329940019.193841 498 493 589 384 391 372
37.051085 1329940019.201962 485 491 589 377 390 369
37.051085 1329940019.210232 470 492 592 377 385 375
37.087149 1329940019.218893 469 495 596 381 385 380
37.087149 1329940019.226760 478 495 600 385 391 376
37.127723 1329940019.235294 477 500 603 375 396 371
37.127723 1329940019.243777 463 501 603 365 394 372
37.168169 1329940019.252051 459 500 602 361 388 374
37.168169 1329940019.263090 469 495 606 364 386 374
37.209704 1329940019.275625 477 492 611 365 395 375
37.209704 1329940019.289174 485 496 614 364 404 377
37.251182 1329940019.303739 486 498 613 365 401 378
37.251182 1329940019.310520 484 500 611 366 389 374
37.292640 1329940019.318442 485 500 609 366 379 370
37.292640 1329940019.333660 491 500 609 367 377 367
37.330291 1329940019.347781 496 499 610 366 378 364
37.330291 1329940019.351719 495 501 609 363 376 365
37.379741 1329940019.360315 495 504 607 363 372 362
37.379741 1329940019.368896 496 503 605 364 370 363
37.411978 1329940019.376891 500 499 605 367 370 366
37.411978 1329940019.385192 501 499 606 370 375 369
37.453991 1329940019.393771 499 500 607 372 380 370
37.453991 1329940019.402069 499 501 606 377 383 369
37.492223 1329940019.410340 503 502 606 380 385 369
37.492223 1329940019.418636 505 500 606 381 385 368
37.525887 1329940019.426864 507 497 608 382 386 366
37.525887 1329940019.435140 505 499 608 381 384 364
37.575025 1329940019.443864 507 501 606 379 383 364
37.575025 1329940019.451736 507 500 605 377 381 365
37.608902 1329940019.460342 507 497 606 371 381 367
37.608902 1329940019.468784 508 499 606 368 384 368
37.650603 1329940019.476893 508 501 607 368 385 368
37.650603 1329940019.485401 508 501 607 370 384 367
37.692128 1329940019.499028 508 499 607 371 381 368
37.692128 1329940019.502087 509 500 608 371 378 369
37.729623 1329940019.511006 510 502 607 374 375 368
37.729623 1329940019.519053 510 502 607 376 374 367
37.767264 1329940019.527724 509 499 607 378 373 367
37.767264 1329940019.535727 508 498 607 380 373 369
37.808811 1329940019.551501 507 501 606 381 376 368
37.808811 1329940019.554264 508 503 605 380 376 367
37.850274 1329940019.560899 508 502 604 379 374 369
37.850274 1329940019.568996 507 500 604 376 374 368
37.890932 1329940019.577451 508 500 604 374 375 369
37.890932 1329940019.585522 508 500 604 373 375 370
37.925532 1329940019.594040 508 501 604 373 378 371
37.925532 1329940019.602455 508 501 605 374 380 371
37.967014 1329940019.610691 509 501 605 375 380 371
37.967014 1329940019.619029 510 500 606 373 378 369
38.007153 1329940019.627357 510 500 606 373 374 368
38.007153 1329940019.635729 509 501 605 374 373 369
38.050021 1329940019.644277 508 501 604 378 373 371
38.050021 1329940019.660698 508 500 605 379 374 370
38.091861 1329940019.668958 509 499 605 377 376 372
38.091861 1329940019.677045 509 500 605 375 377 371
38.125252 1329940019.685532 507 499 606 374 378 371
38.125252 1329940019.693679 508 499 606 374 377 370
38.166765 1329940019.702059 509 500 606 374 375 371
38.166765 1329940019.713228 509 500 606 375 373 372
38.212056 1329940019.718758 507 499 605 376 375 371
38.212056 1329940019.726874 507 499 607 375 377 371
38.249767 1329940019.735271 508 500 606 374 376 371
38.249767 1329940019.743492 508 500 607 375 375 372
38.291640 1329940019.751864 508 499 607 377 373 372
38.291640 1329940019.760198 508 499 607 378 373 373
38.325059 1329940019.779931 508 499 606 377 372 372
38.325059 1329940019.785297 507 500 605 375 373 372
38.366475 1329940019.793512 507 500 606 374 374 372
38.366475 1329940019.801591 507 498 605 372 373 372
38.408405 1329940019.810201 507 499 605 372 374 371
38.408405 1329940019.822235 507 500 605 373 374 373
38.449637 1329940019.826626 508 500 606 374 375 373
38.449637 1329940019.835049 508 499 607 372 375 374
38.491362 1329940019.843554 508 500 607 373 375 373
38.491362 1329940019.851680 508 500 606 374 375 373
38.524794 1329940019.860336 508 500 606 375 373 374
38.524794 1329940019.868677 508 500 606 376 372 372
38.566520 1329940019.876856 508 500 605 374 372 374
38.566520 1329940019.885294 507 500 606 372 373 373
38.610036 1329940019.893551 507 500 605 372 374 373
38.610036 1329940019.901673 507 501 605 373 374 374
38.652914 1329940019.910264 507 500 605 375 374 374
38.652914 1329940019.918635 507 499 604 374 373 374
38.691364 1329940019.938578 507 500 604 374 373 373
38.691364 1329940019.943619 507 501 604 375 375 373
38.733129 1329940019.951704 507 501 605 375 374 371
38.733129 1329940019.959783 506 499 605 376 376 371
38.766363 1329940019.968555 507 500 605 376 374 371
38.766363 1329940019.976394 507 500 605 375 375 371
38.815432 1329940019.990402 507 500 605 376 374 372
38.815432 1329940019.993541 506 500 606 375 376 373
38.849607 1329940020.001675 506 500 606 374 375 373
38.849607 1329940020.009637 507 499 605 373 375 373
38.891103 1329940020.018566 507 500 605 375 374 372
38.891103 1329940020.026340 506 500 605 376 374 372
38.927326 1329940020.034833 506 500 605 375 375 372
38.927326 1329940020.045390 506 499 604 376 374 372
38.966165 1329940020.051615 506 499 604 376 374 372
38.966165 1329940020.059557 506 500 605 375 376 371
39.007454 1329940020.068474 506 500 605 375 378 372
39.007454 1329940020.076293 506 500 604 375 377 371
39.049414 1329940020.092033 506 500 605 375 376 371
39.049414 1329940020.095097 506 499 606 375 376 371
39.097327 1329940020.101336 505 499 607 374 379 370
39.097327 1329940020.109590 506 500 606 373 376 371
39.132328 1329940020.118341 505 500 605 373 373 371
39.132328 1329940020.126440 504 500 604 372 370 371
39.165688 1329940020.134570 502 500 603 372 373 371
39.165688 1329940020.143432 501 500 603 373 375 370
39.207085 1329940020.151226 497 500 602 375 375 370
39.207085 1329940020.159739 489 499 601 373 374 367
39.248978 1329940020.168092 483 498 603 370 376 365
39.248978 1329940020.176239 477 499 605 368 383 361
39.291312 1329940020.184587 473 500 608 367 388 357
39.291312 1329940020.192927 469 503 610 367 386 358
39.332424 1329940020.201140 465 502 610 362 379 357
39.332424 1329940020.209997 463 500 611 356 370 358
39.366941 1329940020.218151 457 500 612 356 365 358
39.366941 1329940020.226153 450 501 613 360 364 361
39.412472 1329940020.234333 444 504 609 366 358 363
39.412472 1329940020.243095 443 511 603 372 345 363
39.449449 1329940020.251244 445 514 598 379 337 357
39.449449 1329940020.259689 449 497 594 375 335 355
39.490895 1329940020.267928 460 491 588 364 335 357
39.490895 1329940020.276153 475 491 586 363 337 358
39.531648 1329940020.284286 491 500 588 374 351 355
39.531648 1329940020.302673 519 487 592 382 368 366
39.573583 1329940020.309699 553 487 598 378 378 385
39.573583 1329940020.317971 587 496 607 376 386 390
39.606994 1329940020.326541 600 505 617 384 403 385
39.606994 1329940020.334108 601 506 627 391 426 383
39.648243 1329940020.350335 603 508 630 392 435 385
39.648243 1329940020.353605 594 518 629 397 422 377
39.689851 1329940020.359626 571 522 628 393 405 372
39.689851 1329940020.367912 560 511 627 385 393 368
39.731577 1329940020.376503 555 502 623 382 381 367
39.731577 1329940020.384284 556 501 618 381 367 368
39.773468 1329940020.392542 558 503 612 381 345 373
39.773468 1329940020.401751 557 503 607 372 327 380
39.806803 1329940020.409751 546 501 603 367 323 386
39.806803 1329940020.417857 537 500 601 369 329 385
39.848350 1329940020.426311 534 504 595 375 342 376
39.848350 1329940020.434308 524 500 591 384 353 369
39.889741 1329940020.442688 516 496 588 390 364 374
39.889741 1329940020.460267 511 495 590 388 380 379
39.931647 1329940020.467750 505 494 591 382 399 375
39.931647 1329940020.476444 501 493 590 377 411 369
39.973852 1329940020.484871 496 493 589 377 412 371
39.973852 1329940020.492246 489 497 596 376 412 377
40.007150 1329940020.500791 489 502 601 371 417 382
40.007150 1329940020.510497 492 508 602 366 417 381
40.051089 1329940020.517615 487 503 604 368 408 373
40.051089 1329940020.525896 484 496 606 373 397 372
40.090180 1329940020.534384 483 501 606 374 387 382
40.090180 1329940020.542573 484 514 608 376 385 383
40.131750 1329940020.550833 484 513 611 378 385 375
40.131750 1329940020.559278 487 493 611 377 383 369
40.172319 1329940020.567616 486 484 610 373 381 370
40.172319 1329940020.575949 481 495 612 369 385 373
40.206391 1329940020.584410 483 508 612 362 390 372
40.206391 1329940020.592101 488 504 612 355 389 369
40.248506 1329940020.600668 493 498 613 356 382 365
40.248506 1329940020.609352 493 497 612 363 380 363
40.290109 1329940020.619069 497 501 612 372 376 360
40.290109 1329940020.625732 498 501 610 374 370 361
40.331494 1329940020.634209 497 497 609 372 362 363
40.331494 1329940020.642488 495 499 608 373 359 366
40.373069 1329940020.650659 497 499 606 377 359 368
40.373069 1329940020.665493 498 499 604 377 362 372
40.406043 1329940020.670509 499 500 603 373 365 373
40.406043 1329940020.693961 498 500 603 371 367 373
40.448151 1329940020.700628 498 502 603 373 368 371
40.448151 1329940020.708959 501 502 603 373 370 371
40.496428 1329940020.717243 502 501 604 373 373 373
40.496428 1329940020.736897 502 500 607 374 376 372
40.531190 1329940020.742423 502 500 607 375 375 369
40.531190 1329940020.750609 503 499 606 378 371 367
40.572857 1329940020.759054 505 500 603 377 366 367
40.572857 1329940020.767316 504 500 603 378 369 366
40.606197 1329940020.775377 503 501 604 381 375 366
40.606197 1329940020.784010 504 498 604 382 380 366
40.656446 1329940020.792150 504 498 603 381 379 369
40.656446 1329940020.800288 504 500 603 377 377 369
40.689346 1329940020.808857 504 501 603 376 375 370
40.689346 1329940020.817270 505 499 604 375 377 368
40.731049 1329940020.825492 504 498 604 374 381 369
40.731049 1329940020.833832 505 500 604 374 382 370
40.772599 1329940020.842244 505 501 605 375 383 372
40.772599 1329940020.850393 506 500 605 375 383 370
40.812091 1329940020.858956 505 498 606 375 384 371
40.812091 1329940020.867036 505 499 607 373 383 369
40.847516 1329940020.875422 508 501 608 372 382 370
40.847516 1329940020.883973 508 502 607 372 380 368
40.889117 1329940020.892118 506 502 607 372 377 368
40.889117 1329940020.900333 506 500 606 375 376 367
40.930693 1329940020.908753 507 499 606 377 375 366
40.930693 1329940020.917146 506 499 605 377 377 367
40.965860 1329940020.925220 506 499 605 376 377 366
40.965860 1329940020.940467 506 499 604 376 375 365
41.007440 1329940020.943189 506 498 603 376 375 366
41.007440 1329940020.950790 506 499 605 375 378 368
41.047237 1329940020.958952 507 501 605 375 382 370
41.047237 1329940020.967058 507 501 606 372 379 369
41.088940 1329940020.979580 507 499 605 371 378 368
41.088940 1329940020.992116 506 498 606 370 378 369
41.140791 1329940020.995630 506 500 606 372 379 370
41.140791 1329940021.000885 506 499 606 375 377 370
41.172118 1329940021.008903 506 497 606 377 375 370
41.172118 1329940021.017287 505 497 605 375 372 370
41.221086 1329940021.025630 505 499 605 376 374 373
41.221086 1329940021.033872 504 500 606 376 376 372
41.246926 1329940021.042378 506 501 605 374 377 371
41.246926 1329940021.050575 507 499 606 374 374 371
41.288667 1329940021.058911 505 499 607 373 375 371
41.288667 1329940021.067182 507 500 605 375 378 370
41.330076 1329940021.075465 508 500 605 375 377 371
41.330076 1329940021.083636 508 498 605 375 373 372
41.371958 1329940021.092408 508 498 604 374 372 371
41.371958 1329940021.100974 507 500 604 372 375 370
41.408152 1329940021.109255 507 500 605 372 379 370
41.408152 1329940021.117246 507 499 606 372 378 370
41.453891 1329940021.125769 508 499 605 372 375 371
41.453891 1329940021.134151 506 501 605 371 373 371
41.486413 1329940021.145169 506 500 605 373 374 371
41.486413 1329940021.150905 506 499 604 374 374 370
41.530239 1329940021.159098 506 498 604 375 375 370
41.530239 1329940021.167479 505 498 605 376 376 370
41.571521 1329940021.175831 505 498 607 376 379 369
41.571521 1329940021.183903 506 499 608 375 381 371
41.613314 1329940021.200027 507 499 607 372 378 372
41.613314 1329940021.212094 507 499 606 371 373 372
41.646915 1329940021.218148 506 499 605 371 371 373
41.646915 1329940021.225080 505 500 605 373 374 373
41.688278 1329940021.233178 505 502 605 374 378 373
41.688278 1329940021.241686 505 500 605 374 379 373
41.729751 1329940021.250554 505 500 605 375 379 373
41.729751 1329940021.258466 505 500 605 375 376 371
41.778828 1329940021.266561 503 499 606 376 376 371
41.778828 1329940021.274721 504 499 606 378 376 371
41.813370 1329940021.283738 505 500 606 378 375 372
41.813370 1329940021.291721 504 501 606 374 376 370
41.846692 1329940021.299662 505 501 607 369 377 371
41.846692 1329940021.315900 505 502 607 369 377 372
41.888325 1329940021.318642 506 501 606 371 375 372
41.888325 1329940021.324631 507 501 605 373 372 371
41.933723 1329940021.332914 506 499 606 372 372 371
41.933723 1329940021.341511 507 500 606 371 375 370
41.971235 1329940021.349555 507 500 606 375 375 368
41.971235 1329940021.357997 507 500 606 377 373 368
42.013342 1329940021.366495 506 500 605 380 373 369
42.013342 1329940021.374628 507 499 605 379 371 370
42.046404 1329940021.382902 506 498 604 379 373 369
42.046404 1329940021.391479 505 497 605 378 374 371
42.088134 1329940021.399531 506 499 603 378 373 371
42.088134 1329940021.408026 505 500 602 379 373 370
42.129207 1329940021.416480 504 498 602 375 375 371
42.129207 1329940021.424558 505 499 603 373 379 371
42.171219 1329940021.432924 506 501 604 372 379 372
42.171219 1329940021.441312 506 501 604 372 378 371
42.207534 1329940021.451756 506 500 605 372 379 371
42.207534 1329940021.457970 505 500 605 373 381 370
42.246225 1329940021.476466 504 500 605 376 381 372
42.246225 1329940021.483229 503 502 605 377 378 371
42.291024 1329940021.491034 500 503 606 377 377 370
42.291024 1329940021.499646 497 500 606 377 375 367
42.326724 1329940021.508193 493 499 605 375 375 368
42.326724 1329940021.516329 486 499 605 375 377 367
42.371084 1329940021.529362 477 500 606 376 381 368
42.371084 1329940021.533008 469 502 607 373 385 366
42.413152 1329940021.541441 466 502 610 364 391 365
42.413152 1329940021.549880 464 500 612 351 392 362
42.446721 1329940021.558284 458 500 612 333 387 360
42.446721 1329940021.566539 455 501 609 322 377 358
42.488170 1329940021.575005 454 500 610 327 371 359
42.488170 1329940021.583173 455 511 610 355 369 364
42.528867 1329940021.591428 457 519 609 385 370 364
42.528867 1329940021.599840 461 510 604 399 363 360
42.578643 1329940021.608236 469 500 593 402 345 360
42.578643 1329940021.616476 479 492 586 396 339 369
42.612312 1329940021.625127 487 493 587 395 355 371
42.612312 1329940021.643914 498 500 590 398 382 362
42.657910 1329940021.649845 516 498 591 393 397 356
42.657910 1329940021.658542 539 484 589 386 398 363
42.687034 1329940021.667123 560 486 598 379 401 370
42.687034 1329940021.675082 575 496 607 375 406 370
42.728319 1329940021.683877 598 501 611 372 401 379
42.728319 1329940021.699680 607 505 619 374 395 383
42.770290 1329940021.702593 591 513 628 388 400 378
42.770290 1329940021.708637 579 512 630 402 406 375
42.816583 1329940021.716837 573 508 625 404 391 374
42.816583 1329940021.725137 571 507 623 397 367 374
42.849121 1329940021.733600 563 501 619 388 347 376
42.849121 1329940021.741985 556 494 613 382 334 379
42.886966 1329940021.756442 552 492 606 378 329 383
42.886966 1329940021.759629 549 498 604 368 332 386
42.928621 1329940021.767077 548 496 606 364 348 382
42.928621 1329940021.774674 548 490 605 368 365 380
42.969840 1329940021.783852 546 482 601 376 375 378
42.969840 1329940021.791859 531 485 595 370 371 379
43.011946 1329940021.799885 522 498 595 350 366 386
43.011946 1329940021.808251 514 502 596 336 369 389
43.048583 1329940021.816531 512 499 594 337 374 384
43.048583 1329940021.824281 506 503 591 342 377 375
43.087686 1329940021.833118 497 506 593 347 378 365
43.087686 1329940021.841646 493 509 596 352 384 362
43.134248 1329940021.849399 492 506 597 363 394 369
43.134248 1329940021.858106 485 503 598 387 400 374
43.181886 1329940021.866408 479 501 601 405 405 370
43.181886 1329940021.874245 478 505 601 401 405 368
43.211642 1329940021.882962 478 498 601 393 404 374
43.211642 1329940021.891442 478 492 603 395 398 377
43.245326 1329940021.899511 474 494 604 396 394 379
43.245326 1329940021.907862 477 501 604 386 388 378
43.297656 1329940021.916262 484 505 604 371 383 377
43.297656 1329940021.924324 483 498 604 361 380 382
43.328278 1329940021.933024 482 495 605 365 380 386
43.328278 1329940021.940946 486 502 602 374 374 389
43.369892 1329940021.949397 494 508 600 376 370 389
43.369892 1329940021.965575 495 505 599 372 372 388
43.411685 1329940021.968303 494 497 602 369 379 383
43.411685 1329940021.974282 495 497 605 372 388 376
43.444975 1329940021.982881 500 501 605 373 394 371
43.444975 1329940021.991094 503 503 607 376 397 367
43.486626 1329940021.999464 505 500 611 380 398 366
43.486626 1329940022.007713 508 502 613 387 395 367
43.528195 1329940022.015754 512 504 613 386 386 366
43.528195 1329940022.024455 513 502 613 380 378 366
43.569832 1329940022.032682 511 499 614 375 376 367
43.569832 1329940022.040913 512 499 614 376 378 368
43.622396 1329940022.049304 516 501 614 377 377 368
43.622396 1329940022.057779 516 501 613 374 374 368
43.645095 1329940022.075528 516 496 614 370 373 367
43.645095 1329940022.082833 517 494 615 372 373 367
43.689660 1329940022.091500 519 497 613 379 369 367
43.689660 1329940022.099275 519 502 613 382 367 368
43.732685 1329940022.107941 516 497 613 377 365 369
43.732685 1329940022.126636 515 491 612 373 365 371
43.769287 1329940022.132492 515 496 610 368 366 374
43.769287 1329940022.141138 511 503 608 368 366 373
43.810885 1329940022.149528 509 504 605 370 366 372
43.810885 1329940022.157529 508 500 604 370 368 372
43.852531 1329940022.165920 507 500 605 370 373 371
43.852531 1329940022.174232 505 503 604 372 377 368
43.885842 1329940022.182722 506 501 604 375 376 365
43.885842 1329940022.191211 507 500 604 375 374 363
43.927564 1329940022.199650 506 501 606 375 374 361
43.927564 1329940022.207471 507 502 606 377 375 359
43.968930 1329940022.216100 508 501 604 379 373 357
43.968930 1329940022.224169 508 500 604 376 372 358
44.010812 1329940022.232510 507 497 605 374 371 359
44.010812 1329940022.240915 507 498 605 375 372 361
44.055772 1329940022.249389 507 501 605 375 372 363
44.055772 1329940022.257671 507 501 604 374 372 364
44.085836 1329940022.266062 507 498 604 369 372 364
44.085836 1329940022.280793 506 498 605 364 373 366
44.127415 1329940022.283871 507 499 605 362 373 365
44.127415 1329940022.291123 508 500 604 364 371 364
44.173379 1329940022.299358 508 502 604 368 372 365
44.173379 1329940022.307826 507 501 605 370 374 366
44.210989 1329940022.316053 508 501 605 374 374 364
44.210989 1329940022.326352 508 500 605 375 373 362
44.252553 1329940022.341765 509 501 604 377 371 363
44.252553 1329940022.353885 509 502 603 378 372 363
44.285656 1329940022.359471 508 498 603 376 372 364
44.285656 1329940022.365752 508 497 603 373 373 363
44.335306 1329940022.374237 508 500 603 372 373 363
44.335306 1329940022.382463 508 502 603 372 374 364
44.368867 1329940022.390608 509 499 601 373 374 364
44.368867 1329940022.399234 508 498 601 374 376 364
44.410580 1329940022.407553 507 498 602 374 377 366
44.410580 1329940022.415837 507 500 602 374 379 365
44.455574 1329940022.424320 506 501 603 375 381 367
44.455574 1329940022.432250 505 499 605 376 383 367
44.485352 1329940022.440614 505 497 604 377 382 367
44.485352 1329940022.449496 505 497 605 376 380 368
44.527120 1329940022.457387 506 500 606 376 378 367
44.527120 1329940022.465662 505 499 607 377 380 367
44.570951 1329940022.474080 504 496 607 377 381 367
44.570951 1329940022.482642 505 496 607 375 379 367
44.610415 1329940022.502304 505 499 607 375 378 368
44.610415 1329940022.507415 506 499 608 374 377 369
44.646836 1329940022.515642 505 497 609 374 378 368
44.646836 1329940022.523811 506 497 608 375 376 369
44.685487 1329940022.532560 506 499 608 374 374 370
44.685487 1329940022.540538 506 500 606 373 373 371
44.726723 1329940022.564692 506 500 605 374 373 372
44.726723 1329940022.567812 505 497 607 373 375 371
44.768636 1329940022.573870 505 497 609 371 380 370
44.768636 1329940022.582250 507 499 609 370 380 370
44.809028 1329940022.590796 507 500 610 372 376 369
44.809028 1329940022.598819 506 497 611 373 376 371
44.851945 1329940022.607231 507 497 610 373 376 370
44.851945 1329940022.619165 505 498 610 372 379 370
44.885342 1329940022.623838 502 497 610 370 381 371
44.885342 1329940022.632275 500 495 610 369 383 371
44.927123 1329940022.640921 496 496 612 366 388 370
44.927123 1329940022.648924 493 504 610 362 392 367
44.968121 1329940022.657291 485 511 610 362 393 361
44.968121 1329940022.673628 476 507 611 372 393 348
45.010676 1329940022.676345 466 502 608 378 394 338
45.010676 1329940022.682292 455 497 604 373 393 339
45.052408 1329940022.690302 439 493 600 362 393 343
45.052408 1329940022.698959 426 498 595 349 393 348
45.085769 1329940022.707533 418 510 590 337 392 349
45.085769 1329940022.715663 412 509 586 335 385 352
45.126970 1329940022.728218 414 504 582 343 377 352
45.126970 1329940022.732440 422 501 582 349 370 352
45.168640 1329940022.740586 451 499 581 352 353 361
45.168640 1329940022.750072 491 485 583 359 336 377
45.210282 1329940022.763276 528 461 586 380 322 392
45.210282 1329940022.766119 588 465 603 397 322 401
45.251350 1329940022.778219 647 498 617 414 337 415
45.251350 1329940022.783760 682 538 631 436 362 420
45.292650 1329940022.790497 699 549 645 466 392 404
45.292650 1329940022.798709 677 552 651 461 428 377
45.325923 1329940022.807325 603 523 647 412 451 367
45.325923 1329940022.815483 578 478 641 384 445 360
45.368086 1329940022.823689 568 472 635 381 418 361
45.368086 1329940022.835410 574 495 629 372 390 375
45.409275 1329940022.840645 591 517 619 354 365 388
45.409275 1329940022.848579 589 522 606 342 338 390
45.451195 1329940022.857033 573 507 598 347 314 383
45.451195 1329940022.865541 547 488 596 356 309 370
45.503933 1329940022.874992 532 489 594 347 319 366
45.503933 1329940022.899056 526 498 590 338 325 369
45.526601 1329940022.913491 524 507 586 341 327 373
45.526601 1329940022.916337 515 508 583 354 335 374
45.584027 1329940022.923654 492 506 581 362 350 375
45.584027 1329940022.932101 476 508 583 367 361 377
45.609485 1329940022.940340 487 505 584 373 365 372
45.609485 1329940022.958985 486 498 586 378 373 370
45.651722 1329940022.965453 462 501 589 380 383 380
45.651722 1329940022.973560 453 507 590 380 388 385
45.693114 1329940022.981852 456 508 591 375 381 376
45.693114 1329940022.990575 455 502 597 368 382 366
45.726551 1329940022.998488 461 501 603 364 393 367
45.726551 1329940023.006911 467 508 609 371 404 374
45.767497 1329940023.015394 472 510 612 375 407 379
45.767497 1329940023.023732 474 506 614 373 401 378
45.818368 1329940023.031615 483 500 614 369 385 375
45.818368 1329940023.040538 489 502 615 369 377 371
45.845560 1329940023.048400 494 507 616 370 373 368
45.845560 1329940023.056774 494 503 618 366 370 365
45.898938 1329940023.065373 494 503 615 364 364 364
45.898938 1329940023.073665 496 504 610 371 356 365
45.926303 1329940023.081898 498 505 607 380 352 367
45.926303 1329940023.090281 501 506 605 385 357 370
45.974075 1329940023.098503 500 503 606 388 365 369
45.974075 1329940023.109697 497 502 606 388 372 369
46.009290 1329940023.115264 498 501 603 383 373 370
46.009290 1329940023.123401 501 500 601 382 370 371
46.050889 1329940023.131787 501 500 601 384 372 371
46.050889 1329940023.140131 500 503 602 383 379 369
46.097044 1329940023.148343 500 502 602 375 384 369
46.097044 1329940023.159200 500 500 602 367 384 367
