imu_t vicon_t accel_x accel_y accel_z gyro_x gyro_y gyro_z
0.846466 1329939686.305692 507 502 606 374 376 370
0.913229 1329939686.320012 507 502 605 375 376 370
0.913229 1329939686.333997 507 502 605 373 376 370
0.913229 1329939686.348383 507 502 605 374 377 369
0.913229 1329939686.355657 508 502 605 374 378 371
0.913229 1329939686.364280 508 502 605 374 377 370
0.913229 1329939686.372511 509 502 605 373 377 370
0.971183 1329939686.380866 509 503 606 373 376 370
0.971183 1329939686.394145 508 502 605 375 376 370
0.971183 1329939686.397410 507 502 605 374 376 370
0.971183 1329939686.405698 507 502 605 375 375 370
0.971183 1329939686.413784 506 502 605 374 376 370
0.971183 1329939686.422405 507 502 605 375 376 370
1.033284 1329939686.430667 507 502 605 374 377 370
1.033284 1329939686.438823 508 502 606 375 377 370
1.033284 1329939686.447229 509 502 605 374 376 371
1.033284 1329939686.455809 509 502 605 374 376 370
1.033284 1329939686.463471 509 502 605 374 376 370
1.033284 1329939686.472228 508 502 605 373 375 370
1.091496 1329939686.480473 508 502 605 373 376 371
1.091496 1329939686.488922 507 502 605 374 376 369
1.091496 1329939686.507246 507 502 605 375 377 370
1.091496 1329939686.513995 507 502 605 374 376 370
1.091496 1329939686.521859 508 502 605 375 376 371
1.091496 1329939686.530462 508 502 605 374 377 370
1.154470 1329939686.538795 508 502 605 375 376 370
1.154470 1329939686.547307 508 502 606 374 375 370
1.154470 1329939686.566740 508 502 605 374 376 371
1.154470 1329939686.572298 507 502 605 374 377 370
1.154470 1329939686.580229 508 502 605 374 376 370
1.154470 1329939686.588843 508 502 605 375 377 371
1.212808 1329939686.597186 508 502 605 374 377 370
1.212808 1329939686.605468 508 502 605 375 377 371
1.212808 1329939686.613914 508 502 606 373 377 370
1.212808 1329939686.621910 508 502 605 374 376 369
1.212808 1329939686.630292 507 502 606 374 375 371
1.212808 1329939686.638771 507 502 606 374 377 370
1.270869 1329939686.647078 507 502 605 374 375 369
1.270869 1329939686.655310 508 502 605 374 376 369
1.270869 1329939686.664083 508 502 606 374 377 370
1.270869 1329939686.692954 508 502 605 374 376 371
1.270869 1329939686.715996 508 502 605 375 376 370
1.270869 1329939686.739882 509 502 605 374 376 370
1.328827 1329939686.753920 508 502 606 375 375 370
1.328827 1329939686.756744 508 502 605 375 375 370
1.328827 1329939686.763638 508 502 605 374 376 370
1.328827 1329939686.771763 507 502 606 374 376 370
1.328827 1329939686.779922 507 502 605 374 376 370
1.328827 1329939686.788773 507 502 605 374 376 370
1.395850 1329939686.796922 508 502 605 374 376 370
1.395850 1329939686.805228 508 502 606 373 377 371
1.395850 1329939686.813744 508 502 605 374 376 370
1.395850 1329939686.821798 508 502 605 374 376 370
1.395850 1329939686.834776 507 502 607 374 376 370
1.395850 1329939686.838719 508 502 606 375 376 370
1.454275 1329939686.846755 508 502 606 373 377 370
1.454275 1329939686.855099 508 502 606 373 377 371
1.454275 1329939686.863627 509 502 605 374 376 371
1.454275 1329939686.871765 508 502 606 374 378 370
1.454275 1329939686.887685 508 502 604 374 376 370
1.454275 1329939686.890541 508 502 606 374 376 370
1.518023 1329939686.896914 508 502 605 374 375 370
1.518023 1329939686.905090 507 502 605 374 376 370
1.518023 1329939686.913501 506 502 605 374 376 370
1.518023 1329939686.921924 507 502 605 374 376 370
1.518023 1329939686.935973 507 502 605 374 376 371
1.518023 1329939686.938798 507 502 605 374 376 371
1.608464 1329939686.946721 508 502 605 375 377 371
1.608464 1329939686.954751 508 502 606 373 376 371
1.608464 1329939686.963756 509 502 605 374 377 370
1.608464 1329939686.971679 509 502 606 375 376 370
1.608464 1329939686.980036 509 503 605 375 376 371
1.608464 1329939686.988610 509 503 606 374 376 369
1.628933 1329939686.996879 508 502 605 373 376 370
1.628933 1329939687.004565 507 502 605 375 376 370
1.628933 1329939687.013307 507 502 605 375 375 370
1.628933 1329939687.021533 506 502 605 373 376 369
1.628933 1329939687.030087 506 502 605 375 376 370
1.628933 1329939687.038452 507 502 605 375 376 371
1.695605 1329939687.046609 507 502 606 374 377 370
1.695605 1329939687.054516 508 502 606 374 377 371
1.695605 1329939687.069424 509 502 605 375 377 370
1.695605 1329939687.072881 509 502 606 374 376 370
1.695605 1329939687.086606 509 502 606 373 376 370
1.695605 1329939687.089597 508 502 606 375 376 370
1.753915 1329939687.096810 508 502 605 374 376 370
1.753915 1329939687.104535 508 502 605 374 376 370
1.753915 1329939687.113292 507 502 606 374 376 370
1.753915 1329939687.121299 506 502 605 375 376 370
1.753915 1329939687.129805 506 502 605 374 376 370
1.753915 1329939687.138405 507 502 605 374 376 371
1.818130 1329939687.146520 507 502 605 374 377 371
1.818130 1329939687.154537 508 502 606 373 377 371
1.818130 1329939687.163361 509 502 605 374 376 371
1.818130 1329939687.171314 509 502 606 374 376 371
1.818130 1329939687.179877 509 502 606 374 376 370
1.818130 1329939687.190304 508 502 606 374 376 371
1.862120 1329939687.196311 508 502 605 374 375 370
1.862120 1329939687.204499 507 502 605 374 376 369
1.862120 1329939687.213033 507 502 605 374 375 370
1.862120 1329939687.221230 507 502 605 375 376 369
1.895446 1329939687.239491 507 502 605 374 377 371
1.895446 1329939687.240026 508 502 605 374 376 370
1.925283 1329939687.245919 509 502 605 374 377 370
1.953854 1329939687.254152 508 503 606 374 376 370
1.953854 1329939687.262592 508 502 605 374 377 369
1.978755 1329939687.270797 506 502 605 375 376 370
2.011934 1329939687.279128 507 502 605 374 376 370
2.011934 1329939687.287785 508 502 605 373 377 370
2.048343 1329939687.295879 509 502 605 374 376 370
2.073242 1329939687.304239 508 502 605 374 376 369
2.073242 1329939687.312425 507 502 605 375 377 370
2.103686 1329939687.321082 507 502 605 373 376 370
2.128474 1329939687.329199 507 502 606 375 376 371
2.128474 1329939687.341170 508 502 605 374 376 370
2.162037 1329939687.345804 508 502 605 374 377 370
2.194735 1329939687.353869 508 502 605 374 376 370
2.194735 1329939687.362596 508 502 606 374 375 370
2.219881 1329939687.370694 507 502 606 374 375 370
2.247374 1329939687.379333 507 502 606 374 377 370
2.247374 1329939687.399417 508 502 605 374 377 371
2.278486 1329939687.423664 509 502 605 374 376 370
2.313596 1329939687.428975 509 502 605 373 375 371
2.313596 1329939687.436918 507 502 605 375 376 370
2.344953 1329939687.445831 507 502 605 374 376 370
2.369776 1329939687.453889 507 502 605 374 376 370
2.369776 1329939687.462393 508 502 605 374 377 370
2.402595 1329939687.470781 509 502 606 374 376 370
2.428138 1329939687.478735 509 502 606 375 376 370
2.428138 1329939687.486987 508 502 605 374 376 370
2.463236 1329939687.495684 507 502 605 374 377 371
2.496940 1329939687.503960 507 502 606 375 376 370
2.496940 1329939687.512401 507 502 605 375 377 371
2.519615 1329939687.520820 509 502 605 374 376 371
2.554639 1329939687.529079 509 502 606 374 377 371
2.554639 1329939687.536952 508 502 606 373 376 370
2.585051 1329939687.545743 508 502 605 375 376 370
2.611011 1329939687.553955 507 502 605 375 376 370
2.611011 1329939687.562474 508 502 606 374 377 370
2.639836 1329939687.570833 508 502 606 374 377 370
2.669962 1329939687.578787 509 502 606 374 376 370
2.669962 1329939687.587127 508 502 605 374 376 370
2.702899 1329939687.595702 507 502 606 374 375 371
2.727856 1329939687.603901 507 502 605 375 376 370
2.727856 1329939687.612061 507 502 605 374 377 370
2.760776 1329939687.620640 508 502 605 375 376 370
2.794771 1329939687.628844 508 502 606 374 376 370
2.794771 1329939687.636720 508 502 606 374 377 369
2.819289 1329939687.645541 508 502 605 374 375 370
2.852782 1329939687.653726 507 502 605 374 376 370
2.852782 1329939687.662336 507 502 605 374 377 371
2.886002 1329939687.678808 507 502 605 374 377 370
2.919373 1329939687.680613 508 502 605 374 376 370
2.919373 1329939687.686668 509 502 605 374 377 369
2.960675 1329939687.695558 508 502 606 374 376 370
2.960675 1329939687.703785 507 502 605 374 376 370
3.002354 1329939687.715341 507 502 605 375 376 370
3.002354 1329939687.736225 508 503 605 374 377 370
3.044142 1329939687.738122 508 502 606 375 375 370
3.044142 1329939687.745315 508 502 605 374 376 370
3.085669 1329939687.753697 508 502 605 374 375 371
3.085669 1329939687.762266 507 502 605 375 376 370
3.123804 1329939687.788452 507 502 605 374 376 370
3.123804 1329939687.803958 508 502 605 374 376 371
3.160835 1329939687.825960 508 502 606 374 377 371
3.160835 1329939687.916296 508 502 605 374 376 370
3.202490 1329939687.931946 508 502 605 375 376 369
3.202490 1329939687.936885 507 502 606 374 376 369
3.243895 1329939687.953133 507 502 605 374 377 369
3.243895 1329939687.954336 508 502 606 375 376 370
3.284485 1329939687.961776 508 502 605 374 376 370
3.284485 1329939687.969913 508 502 606 374 376 371
3.326711 1329939687.978726 508 502 606 374 377 370
3.326711 1329939687.986870 507 502 605 374 376 371
3.360646 1329939687.995337 507 502 605 375 376 370
3.360646 1329939688.003602 508 502 606 374 377 371
3.401903 1329939688.011972 508 502 605 374 377 369
3.401903 1329939688.019995 508 502 606 375 376 371
3.445246 1329939688.028657 507 502 605 374 376 369
3.445246 1329939688.036784 507 502 605 374 376 371
3.484983 1329939688.045169 507 502 606 374 377 371
3.484983 1329939688.053658 508 502 605 374 377 370
3.526697 1329939688.061908 510 502 606 373 375 370
3.526697 1329939688.072102 509 502 605 374 376 369
3.560395 1329939688.078745 507 502 606 375 375 370
3.560395 1329939688.086746 506 503 604 374 376 370
3.617259 1329939688.095254 507 502 605 374 376 370
3.617259 1329939688.105628 508 502 605 375 377 370
3.643261 1329939688.126223 509 503 606 374 376 371
3.643261 1329939688.128179 507 502 606 374 375 370
3.685019 1329939688.136894 505 502 604 374 377 371
3.685019 1329939688.145013 505 501 607 374 377 373
3.726970 1329939688.153494 511 502 606 374 377 371
3.726970 1329939688.161890 511 504 606 374 377 370
3.760083 1329939688.170166 509 504 605 375 376 368
3.760083 1329939688.181859 509 502 605 374 379 370
3.802069 1329939688.186659 508 503 604 375 383 371
3.802069 1329939688.194804 506 504 605 374 388 370
3.843232 1329939688.203391 508 507 606 375 394 371
3.843232 1329939688.211982 510 510 610 379 400 369
3.883915 1329939688.219773 513 511 616 383 398 366
3.883915 1329939688.233291 512 511 621 385 390 364
3.929943 1329939688.236685 513 509 624 382 380 366
3.929943 1329939688.245020 512 509 629 380 370 365
3.959630 1329939688.253396 513 510 631 379 356 362
3.959630 1329939688.261881 512 511 629 380 346 361
4.001936 1329939688.269902 509 511 625 376 339 361
4.001936 1329939688.278206 507 513 622 371 343 363
4.048453 1329939688.286703 507 515 618 369 352 363
4.048453 1329939688.295015 508 517 615 369 362 362
4.084762 1329939688.303384 507 515 615 369 369 359
4.084762 1329939688.311961 509 514 618 362 376 358
4.126119 1329939688.319781 510 516 622 359 382 354
4.126119 1329939688.328062 511 517 623 365 384 350
4.159811 1329939688.356193 514 517 622 368 380 348
4.159811 1329939688.367108 514 517 622 370 374 348
4.203414 1329939688.381147 513 515 620 365 370 348
4.203414 1329939688.394478 514 512 615 359 370 347
4.243329 1329939688.396283 513 512 611 353 372 348
4.243329 1329939688.403859 510 510 608 355 380 349
4.285096 1329939688.411605 514 506 605 357 384 349
4.285096 1329939688.419718 514 505 603 358 386 345
4.322396 1329939688.428056 514 505 601 359 385 345
4.322396 1329939688.436373 512 509 601 362 388 347
4.360096 1329939688.447905 513 508 600 368 389 349
4.360096 1329939688.452849 513 502 597 371 384 348
4.402094 1329939688.461159 516 501 597 366 376 350
4.402094 1329939688.469928 512 498 595 359 375 347
4.443242 1329939688.487017 513 502 594 360 374 348
4.443242 1329939688.494872 512 502 593 363 373 351
4.485053 1329939688.502663 512 502 595 369 374 352
4.485053 1329939688.511511 509 500 595 371 373 353
4.526381 1329939688.519628 510 500 596 370 370 356
4.526381 1329939688.527909 510 502 599 372 368 356
4.560023 1329939688.543781 508 501 599 374 361 356
4.560023 1329939688.555102 508 503 600 380 353 359
4.602062 1329939688.561116 506 504 599 384 348 360
4.602062 1329939688.569574 503 502 598 386 349 360
4.643455 1329939688.578055 503 501 600 384 352 359
4.643455 1329939688.586351 500 497 600 380 350 357
4.685480 1329939688.594612 499 495 601 378 345 358
4.685480 1329939688.605104 497 496 602 378 338 358
4.726587 1329939688.610922 493 501 603 381 335 359
4.726587 1329939688.621486 492 504 602 383 338 360
4.760338 1329939688.632648 490 498 600 386 339 359
4.760338 1329939688.636017 488 499 599 390 338 360
4.807450 1329939688.644138 483 500 602 392 342 363
4.807450 1329939688.652900 485 500 600 395 347 362
4.843400 1329939688.660687 485 497 598 399 349 362
4.843400 1329939688.669500 489 499 599 398 352 363
4.885230 1329939688.677705 487 496 598 395 355 359
4.885230 1329939688.686029 486 491 598 395 355 360
4.926762 1329939688.694241 490 491 598 390 353 362
4.926762 1329939688.702771 487 490 597 379 348 367
4.964145 1329939688.710578 486 492 595 375 347 370
4.964145 1329939688.719016 481 495 594 374 352 373
5.003699 1329939688.727569 482 496 593 375 359 376
5.003699 1329939688.736077 484 494 593 380 366 378
5.047856 1329939688.746087 485 493 595 379 374 377
5.047856 1329939688.757767 482 495 596 376 382 378
5.085467 1329939688.771185 480 497 595 374 391 381
5.085467 1329939688.793762 487 494 593 372 393 383
5.119999 1329939688.804847 488 494 593 370 395 378
5.119999 1329939688.810624 486 496 595 366 403 376
5.160269 1329939688.819075 487 496 595 364 409 379
5.160269 1329939688.827541 494 497 593 366 408 380
5.202075 1329939688.835903 495 498 589 368 402 375
5.202075 1329939688.848951 494 499 591 373 402 371
5.245409 1329939688.862673 490 496 596 374 406 367
5.245409 1329939688.869382 485 489 599 372 404 368
5.294071 1329939688.877671 488 488 597 371 397 373
5.294071 1329939688.892889 489 492 598 376 389 376
5.327095 1329939688.895196 493 505 607 380 384 374
5.327095 1329939688.902479 490 500 615 374 376 366
5.360116 1329939688.911171 487 496 621 371 360 365
5.360116 1329939688.918946 482 498 626 371 342 364
5.401926 1329939688.927565 478 505 631 375 332 365
5.401926 1329939688.935923 476 505 636 373 326 361
5.443649 1329939688.947717 470 496 637 361 312 361
5.443649 1329939688.952260 471 499 635 357 292 365
5.484462 1329939688.961063 468 505 633 352 282 363
5.484462 1329939688.968699 462 502 630 349 280 361
5.528886 1329939688.977785 464 503 627 343 278 360
5.528886 1329939688.985713 465 508 624 341 270 362
5.560425 1329939688.998911 469 515 619 338 265 361
5.560425 1329939689.002334 464 520 616 342 270 354
5.599784 1329939689.010756 447 508 606 359 269 350
5.599784 1329939689.018646 445 502 603 378 267 355
5.650081 1329939689.027317 444 507 601 386 267 352
5.650081 1329939689.035724 446 514 600 391 267 348
5.683768 1329939689.044071 441 509 596 391 268 343
5.683768 1329939689.052233 441 499 592 394 267 343
5.726197 1329939689.060983 437 500 590 399 266 340
5.726197 1329939689.068633 435 504 587 405 261 340
5.762634 1329939689.077207 430 501 582 414 255 341
5.762634 1329939689.085532 430 498 577 420 254 338
5.800512 1329939689.093938 429 496 576 422 262 331
5.800512 1329939689.102713 430 499 570 425 272 327
5.841774 1329939689.110757 432 500 564 426 278 326
5.841774 1329939689.120443 434 495 560 424 291 324
5.883344 1329939689.127214 438 490 557 419 304 323
5.883344 1329939689.137591 441 484 552 417 314 328
5.924761 1329939689.143878 447 482 548 415 322 332
5.924761 1329939689.153593 446 474 544 411 324 340
5.966214 1329939689.160664 442 476 543 400 320 344
5.966214 1329939689.168555 440 477 543 388 316 350
6.003077 1329939689.177124 437 474 543 377 315 354
6.003077 1329939689.185607 436 473 543 372 315 359
6.040375 1329939689.193946 435 476 544 371 318 363
6.040375 1329939689.202215 431 475 544 368 323 365
6.081882 1329939689.210591 429 473 545 369 324 365
6.081882 1329939689.218468 431 476 545 369 319 367
6.123164 1329939689.227154 431 476 542 370 313 375
6.123164 1329939689.235433 429 478 538 371 311 378
6.164781 1329939689.245944 431 481 535 374 315 377
6.164781 1329939689.265912 429 482 531 378 321 375
6.198186 1329939689.268613 429 485 527 379 327 373
6.198186 1329939689.276779 427 484 524 380 332 371
6.239744 1329939689.285302 427 482 521 378 336 365
6.239744 1329939689.293847 427 481 518 376 340 361
6.281381 1329939689.302205 424 478 516 374 346 360
6.281381 1329939689.310346 419 471 517 370 353 359
6.323164 1329939689.319011 418 467 520 369 360 360
6.323164 1329939689.326585 415 462 524 369 366 366
6.364669 1329939689.335387 413 458 526 372 367 370
6.364669 1329939689.343520 408 450 530 375 367 373
6.398199 1329939689.352044 410 450 535 376 365 375
6.398199 1329939689.360215 411 448 537 378 359 381
6.439482 1329939689.375474 410 447 536 381 353 390
6.439482 1329939689.377045 413 449 536 386 346 396
6.481142 1329939689.385098 416 453 535 390 346 403
6.481142 1329939689.393593 416 454 532 393 342 407
6.523788 1329939689.402065 419 455 528 394 341 407
6.523788 1329939689.410124 422 459 524 395 344 412
6.563865 1329939689.418632 425 463 522 400 344 418
6.563865 1329939689.431626 426 465 518 404 344 421
6.605515 1329939689.435058 428 468 515 404 347 424
6.605515 1329939689.443599 430 474 513 405 349 427
6.639030 1329939689.451996 432 478 512 406 354 433
6.639030 1329939689.460203 432 479 509 410 354 435
6.680501 1329939689.468755 434 485 507 411 357 440
6.680501 1329939689.481710 433 490 505 410 359 446
6.727436 1329939689.485021 428 489 502 406 357 448
6.727436 1329939689.493502 429 495 501 399 359 448
6.764062 1329939689.502036 431 502 500 394 362 452
6.764062 1329939689.510323 429 504 500 391 362 457
6.805711 1329939689.518566 430 512 501 389 365 455
6.805711 1329939689.526512 429 520 502 392 371 455
6.839081 1329939689.535192 426 524 503 396 376 454
6.839081 1329939689.543581 425 529 505 403 378 451
6.881636 1329939689.551814 424 535 505 408 383 448
6.881636 1329939689.560100 420 535 506 413 390 443
6.922197 1329939689.568501 419 539 507 418 397 439
6.922197 1329939689.576478 418 546 510 420 398 435
6.958222 1329939689.592367 416 546 512 422 400 429
6.958222 1329939689.594311 415 550 513 422 400 424
7.005749 1329939689.601986 416 556 514 416 400 424
7.005749 1329939689.609964 411 555 516 411 398 421
7.039056 1329939689.618443 413 556 517 411 394 421
7.039056 1329939689.626629 412 564 517 407 393 422
7.080509 1329939689.634634 409 566 518 403 393 420
7.080509 1329939689.643565 407 567 520 403 392 413
7.122368 1329939689.651638 409 569 521 404 390 401
7.122368 1329939689.659751 409 576 523 403 390 390
7.163872 1329939689.668482 404 575 522 399 386 379
7.163872 1329939689.676233 405 577 522 394 380 367
7.205438 1329939689.684696 406 579 522 388 374 361
7.205438 1329939689.693396 402 576 521 384 370 353
7.239386 1329939689.701719 403 576 521 382 367 345
7.239386 1329939689.709777 405 577 521 380 367 338
7.280499 1329939689.718267 404 573 521 379 370 335
7.280499 1329939689.726066 403 569 521 381 374 333
7.321843 1329939689.734685 404 567 521 382 374 329
7.321843 1329939689.753044 403 564 520 383 372 325
7.363674 1329939689.759661 404 559 518 381 370 322
7.363674 1329939689.768136 403 555 516 375 367 320
7.414153 1329939689.776781 407 553 515 363 367 319
7.414153 1329939689.784748 409 548 514 354 367 318
7.438648 1329939689.792840 411 547 517 348 365 320
7.438648 1329939689.809905 411 544 516 347 364 321
7.480600 1329939689.811545 410 540 516 347 364 317
7.480600 1329939689.817973 413 540 515 347 366 317
7.527382 1329939689.826669 414 539 516 346 368 316
7.527382 1329939689.834636 410 534 516 346 368 315
7.562954 1329939689.842795 408 529 515 347 369 312
7.562954 1329939689.851635 414 531 515 347 371 310
7.605011 1329939689.859493 417 531 514 343 371 313
7.605011 1329939689.868243 413 528 513 340 369 310
7.639786 1329939689.876540 412 523 512 338 367 310
7.639786 1329939689.884721 414 523 511 334 370 310
7.681818 1329939689.893129 415 521 511 331 374 309
7.681818 1329939689.902656 413 517 511 331 376 309
7.721394 1329939689.925054 415 517 511 326 376 308
7.721394 1329939689.926942 417 516 513 322 375 307
7.758588 1329939689.934897 414 511 513 320 372 307
7.758588 1329939689.942835 414 508 512 318 369 308
7.804598 1329939689.951200 417 508 512 317 373 310
7.804598 1329939689.959650 416 504 513 314 379 305
7.849089 1329939689.967752 415 501 513 313 382 304
7.849089 1329939689.976247 420 500 513 313 382 304
7.879497 1329939689.984923 420 498 514 315 383 309
7.879497 1329939689.993038 419 495 515 315 384 309
7.926268 1329939690.001569 419 492 515 314 385 305
7.926268 1329939690.009923 421 489 518 312 387 303
7.962849 1329939690.018109 424 486 520 312 388 302
7.962849 1329939690.026435 424 483 520 312 388 302
8.010005 1329939690.034905 423 477 520 311 387 300
8.010005 1329939690.042733 423 471 522 312 387 299
8.046204 1329939690.051429 428 470 526 317 385 304
8.046204 1329939690.059564 427 469 527 321 386 311
8.079705 1329939690.068007 423 461 526 325 386 311
8.079705 1329939690.076381 422 455 528 329 387 307
8.121038 1329939690.084742 427 455 530 337 390 308
8.121038 1329939690.092801 429 454 531 341 395 312
8.162751 1329939690.101467 429 450 532 344 395 311
8.162751 1329939690.109893 430 448 533 348 398 310
8.204421 1329939690.118013 430 445 534 351 401 312
8.204421 1329939690.126454 434 446 535 354 402 316
8.238098 1329939690.134575 434 444 536 354 400 317
8.238098 1329939690.142743 433 437 538 355 401 313
8.281005 1329939690.151152 437 434 540 361 404 314
8.281005 1329939690.159264 442 434 541 366 401 318
8.321024 1329939690.178225 442 431 540 367 396 323
8.321024 1329939690.191687 439 428 539 366 390 329
8.362756 1329939690.193417 440 427 539 361 388 333
8.362756 1329939690.201036 440 428 541 352 386 339
8.404374 1329939690.209841 438 425 541 347 384 341
8.404374 1329939690.217562 437 423 543 343 388 339
8.438043 1329939690.225959 436 419 546 343 393 339
8.438043 1329939690.237706 438 418 550 343 396 342
8.479371 1329939690.245714 439 417 554 346 396 349
8.479371 1329939690.250932 437 414 556 350 394 351
8.522583 1329939690.261726 439 413 560 354 389 355
8.522583 1329939690.267542 441 415 561 362 383 362
8.562728 1329939690.286622 439 414 562 370 381 367
8.562728 1329939690.309690 440 414 560 381 378 370
8.608576 1329939690.322324 439 415 560 389 378 373
8.608576 1329939690.334002 438 414 560 393 376 377
8.643687 1329939690.356302 439 415 558 398 371 383
8.643687 1329939690.367436 438 415 556 403 368 387
8.679210 1329939690.371213 437 416 554 407 367 391
8.679210 1329939690.376001 437 416 551 410 363 394
8.720691 1329939690.384022 436 416 549 410 362 395
8.720691 1329939690.392764 437 418 547 411 360 397
8.759777 1329939690.401083 437 419 544 411 361 402
8.759777 1329939690.409159 435 421 541 411 361 406
8.810484 1329939690.417377 435 423 540 409 364 409
8.810484 1329939690.425970 435 426 539 408 364 411
8.845552 1329939690.434062 436 428 537 411 359 414
8.845552 1329939690.448286 435 430 534 410 356 416
8.879008 1329939690.460021 432 431 533 413 362 417
8.879008 1329939690.467851 434 434 533 415 363 419
8.921820 1329939690.475407 436 438 531 418 363 423
8.921820 1329939690.484283 434 441 528 419 363 425
8.962147 1329939690.492838 433 442 523 419 367 427
8.962147 1329939690.505950 433 445 521 415 371 431
9.003900 1329939690.511449 432 448 520 412 376 433
9.003900 1329939690.517823 429 449 519 409 376 433
9.046825 1329939690.527639 431 453 519 406 375 433
9.046825 1329939690.534773 430 456 518 402 375 435
9.078387 1329939690.544748 429 459 519 400 376 437
9.078387 1329939690.551316 430 460 520 400 376 437
9.120113 1329939690.561517 429 462 520 401 377 436
9.120113 1329939690.567976 430 466 521 402 380 439
9.161664 1329939690.575623 432 469 522 406 379 441
9.161664 1329939690.584733 432 474 522 407 376 445
9.203207 1329939690.593059 429 475 522 408 375 447
9.203207 1329939690.601317 428 479 521 406 375 449
9.244945 1329939690.618729 428 484 521 403 375 450
9.244945 1329939690.630233 428 489 521 400 373 454
9.287008 1329939690.634146 426 491 521 396 372 453
9.287008 1329939690.643115 425 495 521 395 374 452
9.320880 1329939690.651144 426 498 520 396 375 450
9.320880 1329939690.659831 426 503 519 397 374 452
9.361473 1329939690.667998 426 506 517 399 375 452
9.361473 1329939690.676469 421 507 515 401 383 448
9.402998 1329939690.684008 420 509 515 402 390 442
9.402998 1329939690.693057 425 513 516 399 391 438
9.444832 1329939690.701412 425 520 518 399 391 443
9.444832 1329939690.709970 420 522 518 395 392 446
9.498334 1329939690.718154 418 524 519 392 394 443
9.498334 1329939690.726632 420 533 521 389 394 442
9.519834 1329939690.734274 417 535 523 390 388 441
9.519834 1329939690.742985 415 538 524 389 384 440
9.559465 1329939690.751225 417 545 525 389 385 440
9.559465 1329939690.760113 412 547 525 386 385 439
9.602368 1329939690.769645 411 550 527 384 381 432
9.602368 1329939690.776287 413 551 527 382 374 425
9.644512 1329939690.784202 411 552 526 382 373 423
9.644512 1329939690.792924 411 554 525 384 379 421
9.686458 1329939690.801400 410 555 526 386 380 413
9.686458 1329939690.809866 411 558 526 389 384 409
9.719844 1329939690.819782 411 559 527 393 386 407
9.719844 1329939690.826156 411 558 528 395 383 404
9.761264 1329939690.834282 411 559 527 396 383 399
9.761264 1329939690.842955 410 559 526 393 383 398
9.820208 1329939690.851099 411 561 526 390 380 393
9.820208 1329939690.859868 410 560 526 386 378 389
9.844627 1329939690.867961 409 561 526 383 376 385
9.844627 1329939690.876349 408 562 526 378 375 381
9.880309 1329939690.884535 407 564 527 374 373 378
9.880309 1329939690.892839 406 564 527 371 373 373
9.919808 1329939690.901281 407 565 526 369 376 370
9.919808 1329939690.909899 406 568 528 369 382 364
9.961038 1329939690.917914 404 569 529 368 382 361
9.961038 1329939690.926269 404 569 531 370 381 353
10.002846 1329939690.934786 406 570 531 372 379 345
10.002846 1329939690.943039 406 567 532 372 376 339
10.040105 1329939690.951311 408 565 532 370 371 333
10.040105 1329939690.960467 408 564 530 368 368 332
10.085973 1329939690.968049 408 562 531 366 368 330
10.085973 1329939690.979425 409 560 530 363 366 328
10.119200 1329939690.984603 408 557 530 357 362 322
10.119200 1329939690.993288 410 555 530 353 358 321
10.163406 1329939691.001603 412 555 530 352 357 321
10.163406 1329939691.010018 411 552 530 351 356 319
10.203064 1329939691.018139 412 548 527 352 356 316
10.203064 1329939691.034454 414 548 526 354 356 314
10.243997 1329939691.048567 414 545 524 355 359 312
10.243997 1329939691.051395 410 538 522 355 360 310
10.285713 1329939691.060476 413 536 522 354 361 307
10.285713 1329939691.068341 416 535 522 352 362 304
10.318958 1329939691.075996 415 531 521 351 358 302
10.318958 1329939691.084858 413 526 519 347 354 303
10.365079 1329939691.100753 415 524 518 342 354 305
10.365079 1329939691.115304 415 524 517 337 354 309
10.401904 1329939691.118900 412 521 517 332 354 306
10.401904 1329939691.126550 413 517 517 328 356 297
10.443703 1329939691.134549 416 513 517 327 358 292
10.443703 1329939691.143384 417 508 517 330 359 295
10.498053 1329939691.151299 417 502 516 338 359 297
10.498053 1329939691.159411 420 501 515 343 364 298
10.526948 1329939691.168220 420 499 514 344 368 297
10.526948 1329939691.176626 421 496 513 342 368 296
10.560194 1329939691.184301 422 492 513 340 368 297
10.560194 1329939691.193132 425 489 512 337 367 298
10.601891 1329939691.201066 426 486 512 333 367 299
10.601891 1329939691.209401 425 481 511 331 371 296
10.643305 1329939691.218153 426 477 511 329 375 294
10.643305 1329939691.226712 428 472 511 327 378 293
10.685312 1329939691.234679 431 468 513 325 378 293
10.685312 1329939691.243590 432 463 513 325 381 293
10.726944 1329939691.251566 432 458 514 324 383 295
10.726944 1329939691.272143 435 456 515 327 384 300
10.768122 1329939691.296439 435 453 516 330 383 307
10.768122 1329939691.311549 435 449 516 330 380 314
10.801855 1329939691.318086 435 449 517 330 380 318
10.801855 1329939691.326616 434 446 518 332 384 324
10.843399 1329939691.335073 433 443 518 332 384 325
10.843399 1329939691.355762 434 442 519 330 383 328
10.884866 1329939691.359718 432 441 522 328 384 329
10.884866 1329939691.368685 433 438 523 331 387 330
10.926683 1329939691.376323 435 436 525 333 387 330
10.926683 1329939691.385307 437 435 525 336 392 334
10.959742 1329939691.393316 437 434 526 340 399 335
10.959742 1329939691.412847 437 433 527 345 406 335
11.001670 1329939691.427869 438 432 529 349 410 336
11.001670 1329939691.434998 437 429 530 350 409 339
11.043145 1329939691.442828 440 427 532 351 410 341
11.043145 1329939691.451837 441 426 536 351 414 344
11.084779 1329939691.459768 440 424 539 354 417 349
11.084779 1329939691.468262 438 422 541 357 415 356
11.134213 1329939691.480312 437 419 544 358 413 360
11.134213 1329939691.485095 437 420 547 358 419 362
11.160121 1329939691.493283 436 421 551 358 419 369
11.160121 1329939691.501736 433 422 554 358 415 375
11.203187 1329939691.509934 432 426 556 360 407 380
11.203187 1329939691.518124 434 429 555 362 396 383
11.243904 1329939691.537942 438 434 553 364 391 385
11.243904 1329939691.553120 437 433 548 364 393 387
11.285042 1329939691.559461 433 433 546 362 400 390
11.285042 1329939691.568406 437 435 548 358 408 394
11.328342 1329939691.576631 442 441 552 359 403 397
11.328342 1329939691.584689 439 439 553 362 398 399
11.360111 1329939691.601903 440 439 553 364 399 401
11.360111 1329939691.609717 448 445 553 365 395 402
11.401618 1329939691.617848 449 451 555 365 398 409
11.401618 1329939691.626562 442 449 555 370 395 416
11.443610 1329939691.634927 440 447 555 373 390 415
11.443610 1329939691.643137 443 454 556 376 383 413
11.485680 1329939691.668028 444 459 555 380 379 418
11.485680 1329939691.680351 434 457 553 383 378 423
11.519034 1329939691.686001 436 459 552 382 378 422
11.519034 1329939691.693225 440 469 554 379 379 421
11.560238 1329939691.701391 435 469 555 380 380 423
11.560238 1329939691.709775 428 463 553 381 374 421
11.602257 1329939691.731632 433 469 551 380 369 418
11.602257 1329939691.734722 436 476 552 379 375 420
11.649498 1329939691.742727 431 474 550 381 384 424
11.649498 1329939691.751406 428 471 547 386 391 422
11.685387 1329939691.760164 428 474 547 391 398 420
11.685387 1329939691.767823 435 482 549 393 406 421
11.718882 1329939691.776413 439 483 547 397 413 421
11.718882 1329939691.784744 429 477 544 402 424 417
11.760817 1329939691.792380 430 483 545 403 439 415
11.760817 1329939691.801290 438 491 548 400 451 416
11.802931 1329939691.809602 443 491 550 398 451 411
11.802931 1329939691.817803 437 479 550 400 449 398
11.844428 1329939691.826615 431 480 554 404 458 395
11.844428 1329939691.836716 438 489 558 404 465 406
11.885874 1329939691.842833 447 495 563 402 458 417
11.885874 1329939691.851306 449 493 564 399 449 414
11.919817 1329939691.859991 437 487 566 394 449 405
11.919817 1329939691.868278 434 486 566 389 449 404
11.961606 1329939691.876513 440 488 568 386 451 405
11.961606 1329939691.892527 445 491 571 384 462 405
12.003195 1329939691.907685 445 491 575 383 474 404
12.003195 1329939691.910988 444 491 581 383 481 407
12.044476 1329939691.917797 445 497 585 383 477 408
12.044476 1329939691.925662 450 502 588 384 474 412
12.094907 1329939691.934151 446 497 590 385 471 406
12.094907 1329939691.942107 444 494 592 389 472 396
12.119949 1329939691.958068 445 499 595 386 476 398
12.119949 1329939691.961176 444 505 599 381 480 401
12.158826 1329939691.975925 448 506 601 381 474 399
12.158826 1329939691.984069 453 502 603 380 464 391
12.216306 1329939691.991797 453 495 604 381 456 380
12.216306 1329939692.000396 458 493 602 380 449 372
12.244773 1329939692.012036 459 496 601 378 445 379
12.244773 1329939692.017108 462 496 600 374 445 387
12.278182 1329939692.025293 466 499 601 370 441 393
12.278182 1329939692.034095 467 498 602 365 439 390
12.319347 1329939692.042149 465 496 600 357 436 377
12.319347 1329939692.050791 471 498 604 348 437 371
12.361520 1329939692.058692 475 502 611 346 434 371
12.361520 1329939692.070478 477 505 613 358 428 370
12.410425 1329939692.075604 482 505 610 368 427 367
12.410425 1329939692.084533 483 501 609 369 432 365
12.444687 1329939692.091789 484 498 608 365 427 364
12.444687 1329939692.100366 486 497 608 364 410 365
12.478189 1329939692.108426 490 495 609 367 401 369
12.478189 1329939692.125139 493 499 608 371 406 375
12.519718 1329939692.138397 491 498 609 370 414 377
12.519718 1329939692.141519 493 496 611 372 415 372
12.572842 1329939692.149679 495 494 612 375 415 369
12.572842 1329939692.158268 497 495 613 376 415 369
12.602986 1329939692.166303 500 495 615 375 416 371
12.602986 1329939692.174728 504 494 616 378 411 372
12.644689 1329939692.182621 502 494 616 385 407 370
12.644689 1329939692.191236 501 495 615 390 407 368
12.678875 1329939692.199206 500 495 614 388 408 367
12.678875 1329939692.207985 502 490 612 383 402 368
12.719057 1329939692.216072 502 489 611 382 396 371
12.719057 1329939692.224232 505 494 611 380 395 374
12.761032 1329939692.232646 506 496 610 379 398 374
12.761032 1329939692.241280 505 492 608 376 398 372
12.802264 1329939692.249102 506 492 608 371 400 373
12.802264 1329939692.257526 507 494 609 368 401 374
12.843819 1329939692.266074 507 495 610 362 399 375
12.843819 1329939692.274049 507 494 609 359 393 377
12.879269 1329939692.287180 509 495 610 358 390 376
12.879269 1329939692.292769 511 496 612 360 389 376
12.919113 1329939692.298626 510 496 612 360 387 373
12.919113 1329939692.310975 512 495 612 361 383 373
12.960622 1329939692.315497 511 495 612 366 381 373
12.960622 1329939692.325976 511 496 611 369 379 372
12.998234 1329939692.331737 510 496 610 369 377 371
12.998234 1329939692.340320 512 497 610 369 375 372
13.043906 1329939692.348400 511 499 609 370 375 371
13.043906 1329939692.357036 511 497 608 368 375 372
13.085726 1329939692.364988 511 497 607 370 375 373
13.085726 1329939692.373092 511 498 606 372 375 374
13.133955 1329939692.381355 512 498 605 372 377 373
13.133955 1329939692.389731 512 498 605 371 376 372
13.160436 1329939692.397809 511 497 606 373 377 370
13.160436 1329939692.406444 512 498 605 375 374 371
13.202189 1329939692.414591 512 499 605 374 374 371
13.202189 1329939692.422845 512 498 605 373 376 371
13.243835 1329939692.431100 512 497 605 371 377 371
13.243835 1329939692.439816 513 498 606 372 376 370
13.287388 1329939692.448532 513 499 606 372 375 372
13.287388 1329939692.456162 513 499 606 372 373 372
13.318714 1329939692.464572 513 499 606 372 371 371
13.318714 1329939692.472682 512 498 607 372 372 370
13.360153 1329939692.503804 512 498 606 373 371 370
13.360153 1329939692.506018 511 499 606 372 374 371
13.401885 1329939692.514311 512 499 606 372 373 371
13.401885 1329939692.522838 512 499 606 373 372 371
13.450308 1329939692.530900 512 498 605 371 372 371
13.450308 1329939692.539468 511 499 605 371 371 371
13.484960 1329939692.547657 511 500 605 371 371 371
13.484960 1329939692.555907 511 499 605 371 373 369
13.519891 1329939692.564263 511 499 605 371 373 370
13.519891 1329939692.572749 511 500 605 373 373 370
13.560118 1329939692.580966 511 499 606 374 375 371
13.560118 1329939692.589300 511 499 606 375 374 371
13.601305 1329939692.608076 510 499 605 375 374 370
13.601305 1329939692.614216 510 499 606 374 373 371
13.643410 1329939692.622633 510 499 605 374 374 369
13.643410 1329939692.631049 510 499 606 373 374 370
13.685257 1329939692.639370 511 499 605 372 374 369
13.685257 1329939692.647563 510 499 605 371 374 369
13.717881 1329939692.655792 509 499 605 373 375 370
13.717881 1329939692.664214 509 499 606 374 375 371
13.767659 1329939692.672517 510 499 606 374 374 370
13.767659 1329939692.680936 511 500 606 372 375 369
13.801874 1329939692.689225 511 500 606 373 375 368
13.801874 1329939692.697524 510 500 605 374 375 368
13.843156 1329939692.705976 510 500 605 376 376 367
13.843156 1329939692.716828 510 499 606 378 375 368
13.884738 1329939692.722650 510 499 605 379 375 368
13.884738 1329939692.730933 510 498 604 379 375 368
13.918064 1329939692.739230 509 498 604 377 375 370
13.918064 1329939692.747491 510 499 604 375 376 371
13.963265 1329939692.755758 511 499 605 374 376 371
13.963265 1329939692.769774 510 497 604 372 376 370
14.001306 1329939692.781922 510 498 604 370 375 371
14.001306 1329939692.789180 509 499 604 371 375 372
14.043115 1329939692.797501 510 499 604 372 377 372
14.043115 1329939692.805537 509 499 604 372 379 371
14.083528 1329939692.813767 509 499 603 372 380 372
14.083528 1329939692.831757 509 498 604 374 381 371
14.118224 1329939692.838514 510 499 604 375 382 372
14.118224 1329939692.847245 510 499 605 375 382 372
14.159282 1329939692.855470 510 499 605 376 382 371
14.159282 1329939692.863615 510 498 606 376 384 371
14.201099 1329939692.871913 510 498 607 375 383 370
14.201099 1329939692.880345 511 498 606 372 380 370
14.242442 1329939692.888521 511 498 606 371 380 371
14.242442 1329939692.897152 510 499 607 370 382 371
14.284774 1329939692.905408 511 500 608 371 381 372
14.284774 1329939692.913541 510 500 608 373 380 371
14.326123 1329939692.921972 509 500 608 373 382 370
14.326123 1329939692.937144 508 500 610 374 384 369
14.359504 1329939692.938468 507 500 611 374 384 367
14.359504 1329939692.947057 506 500 612 375 381 368
14.400624 1329939692.955430 503 499 614 376 378 367
14.400624 1329939692.963908 502 499 616 374 378 370
14.453797 1329939692.971913 500 501 619 377 374 370
14.453797 1329939692.984818 498 502 623 378 368 371
14.484402 1329939692.988509 493 500 629 375 362 371
14.484402 1329939692.996976 488 499 636 371 358 371
14.526313 1329939693.005533 486 503 650 368 354 369
14.526313 1329939693.013768 486 504 661 368 340 366
14.565038 1329939693.021887 481 502 669 370 313 365
14.565038 1329939693.035271 478 502 674 371 290 361
14.600909 1329939693.046870 477 505 679 374 273 358
14.600909 1329939693.055424 478 503 681 381 253 359
14.642930 1329939693.063980 480 501 677 389 231 359
14.642930 1329939693.071939 481 501 669 394 213 360
14.683959 1329939693.080172 484 499 658 401 200 361
14.683959 1329939693.088753 484 495 646 404 191 362
14.725761 1329939693.101910 484 496 632 401 187 360
14.725761 1329939693.105475 484 496 619 395 185 358
14.758677 1329939693.113718 483 493 608 392 192 359
14.758677 1329939693.121952 483 494 603 393 199 360
14.804307 1329939693.130046 481 492 595 396 198 357
14.804307 1329939693.138559 477 492 586 401 189 358
14.841071 1329939693.146925 475 495 576 397 190 359
14.841071 1329939693.155318 473 493 569 391 197 358
14.882217 1329939693.163735 469 492 563 390 206 359
14.882217 1329939693.171906 463 491 557 393 222 358
14.923469 1329939693.189508 461 495 554 397 240 360
14.923469 1329939693.190431 458 496 553 404 250 358
14.974358 1329939693.196791 454 490 548 408 250 355
14.974358 1329939693.210611 455 485 544 410 253 354
14.997989 1329939693.213688 456 488 538 412 261 357
14.997989 1329939693.221894 448 487 534 407 273 361
15.039490 1329939693.230212 444 487 534 401 280 362
15.039490 1329939693.238711 448 490 535 400 283 360
15.081344 1329939693.246872 443 487 532 401 289 362
15.081344 1329939693.265971 441 483 526 401 297 364
15.130295 1329939693.271879 441 484 523 391 302 368
15.130295 1329939693.280388 439 482 522 384 303 372
15.163879 1329939693.288441 438 486 521 381 297 374
15.163879 1329939693.297055 436 487 514 382 291 373
15.205712 1329939693.305042 431 483 505 381 294 373
15.205712 1329939693.313610 428 478 495 378 305 374
15.238997 1329939693.322057 425 475 487 373 317 374
15.238997 1329939693.330171 420 470 482 370 333 373
15.280562 1329939693.338585 417 460 478 365 348 373
15.280562 1329939693.347069 414 453 478 362 364 375
15.322243 1329939693.363710 412 449 482 363 379 377
15.322243 1329939693.371835 413 447 487 364 390 379
15.364348 1329939693.380296 417 445 493 364 394 385
15.364348 1329939693.388527 418 440 499 363 396 389
15.405420 1329939693.396711 420 440 506 362 394 393
15.405420 1329939693.405275 422 447 510 361 388 399
15.442375 1329939693.413531 420 447 514 363 381 407
15.442375 1329939693.421830 422 449 516 368 381 416
15.489382 1329939693.430295 423 460 519 364 382 424
15.489382 1329939693.438376 420 463 522 363 378 430
15.521776 1329939693.446782 421 468 524 365 373 434
15.521776 1329939693.455183 422 475 524 369 371 439
15.563469 1329939693.464025 422 485 523 376 368 442
15.563469 1329939693.471789 424 490 521 380 368 446
15.605266 1329939693.486050 427 497 519 384 369 450
15.605266 1329939693.488422 423 508 516 391 368 452
15.638612 1329939693.496706 424 516 513 395 363 454
15.638612 1329939693.505262 426 519 512 403 366 451
15.680212 1329939693.513393 423 530 512 412 375 444
15.680212 1329939693.521862 423 534 512 418 383 435
15.721804 1329939693.535500 422 537 514 418 390 428
15.721804 1329939693.547393 424 539 518 415 395 425
15.772562 1329939693.554943 423 542 521 416 389 425
15.772562 1329939693.563573 421 546 520 416 380 423
15.805239 1329939693.571654 421 547 518 412 377 421
15.805239 1329939693.580057 418 549 517 407 379 421
15.846633 1329939693.588430 417 555 517 403 376 418
15.846633 1329939693.605561 417 559 517 401 372 413
15.883467 1329939693.613257 414 560 516 402 378 410
15.883467 1329939693.621848 411 563 516 401 382 405
15.921765 1329939693.629718 410 565 517 399 383 398
15.921765 1329939693.638276 407 567 517 397 385 392
15.963372 1329939693.646661 404 566 518 398 383 387
15.963372 1329939693.662694 401 574 516 398 379 383
16.007215 1329939693.663580 398 578 516 393 380 381
16.007215 1329939693.671708 395 584 519 385 385 375
16.056037 1329939693.679857 397 589 522 372 383 367
16.056037 1329939693.689132 397 592 525 365 377 357
16.086503 1329939693.696702 398 595 527 362 374 346
16.086503 1329939693.704845 402 593 528 364 370 336
16.125428 1329939693.721965 403 588 529 373 367 324
16.125428 1329939693.732259 406 586 529 377 369 311
16.163588 1329939693.737995 411 576 529 377 368 300
16.163588 1329939693.746527 410 567 528 376 364 292
16.204796 1329939693.754820 411 560 525 374 358 287
16.204796 1329939693.762796 416 554 522 367 353 284
16.246239 1329939693.780238 420 549 521 356 354 281
16.246239 1329939693.788358 422 541 520 349 353 280
16.290367 1329939693.796324 424 531 516 346 349 281
16.290367 1329939693.804678 426 528 514 343 347 281
16.319437 1329939693.812810 425 522 512 343 351 281
16.319437 1329939693.821460 428 517 513 344 359 282
16.363068 1329939693.835403 433 517 515 345 361 279
16.363068 1329939693.839047 433 512 514 342 358 279
16.406030 1329939693.846109 431 501 511 338 355 277
16.406030 1329939693.863315 433 497 511 334 359 274
16.445819 1329939693.870994 437 495 511 328 359 272
16.445819 1329939693.879759 437 490 510 324 356 269
16.484375 1329939693.889048 436 481 509 324 362 269
16.484375 1329939693.896110 437 477 506 322 367 267
16.521624 1329939693.904486 437 469 508 327 370 269
16.521624 1329939693.912840 439 462 507 334 373 270
16.562865 1329939693.921014 439 460 507 341 378 270
16.562865 1329939693.929701 440 452 507 343 384 272
16.604466 1329939693.937782 440 446 509 344 387 277
16.604466 1329939693.947802 442 445 511 344 386 280
16.646131 1329939693.954258 440 438 512 346 388 281
16.646131 1329939693.964132 441 429 512 346 389 287
16.679436 1329939693.970983 446 429 516 346 390 291
16.679436 1329939693.979670 442 425 518 349 391 294
16.721261 1329939693.989739 441 420 515 349 389 299
16.721261 1329939693.996031 444 419 517 345 389 304
16.762986 1329939694.004310 441 410 517 345 391 307
16.762986 1329939694.012700 438 397 517 343 390 315
16.805337 1329939694.020960 439 394 516 340 388 323
16.805337 1329939694.029431 436 391 518 340 388 329
16.846156 1329939694.042302 435 384 520 341 390 338
16.846156 1329939694.045810 436 379 522 343 392 348
16.879454 1329939694.054110 432 372 524 345 396 357
16.879454 1329939694.066518 432 366 528 345 399 368
16.922025 1329939694.070764 433 369 535 342 398 383
16.922025 1329939694.087530 431 372 539 342 394 393
16.962252 1329939694.097927 433 374 543 341 388 402
16.962252 1329939694.104449 433 378 546 343 380 413
17.004137 1329939694.112519 433 380 545 345 374 422
17.004137 1329939694.122218 434 386 544 348 367 431
17.045779 1329939694.128976 434 392 543 351 363 439
17.045779 1329939694.144507 433 400 541 359 359 445
17.079126 1329939694.145846 434 409 538 368 357 448
17.079126 1329939694.157070 435 417 535 379 358 449
17.120795 1329939694.162307 434 426 535 388 364 451
17.120795 1329939694.170955 434 433 535 395 364 452
17.162260 1329939694.179007 435 439 533 397 360 451
17.162260 1329939694.187536 438 441 533 403 359 453
17.203656 1329939694.195894 440 447 531 413 359 457
17.203656 1329939694.207645 439 456 528 421 362 462
17.245282 1329939694.214324 435 468 525 422 363 460
17.245282 1329939694.221175 434 470 524 426 369 458
17.278917 1329939694.234192 439 471 524 433 374 460
17.278917 1329939694.237497 445 473 524 437 374 463
17.320374 1329939694.245664 438 479 522 435 371 464
17.320374 1329939694.254183 438 487 521 425 367 463
17.363961 1329939694.262328 437 496 523 425 368 465
17.363961 1329939694.270758 440 499 523 434 372 466
17.403578 1329939694.279320 438 500 522 436 376 468
17.403578 1329939694.287564 434 508 520 424 373 466
17.445183 1329939694.295861 429 515 520 414 372 463
17.445183 1329939694.304229 431 514 522 414 369 459
17.478522 1329939694.317941 430 513 520 417 367 459
17.478522 1329939694.322634 428 519 518 413 366 454
17.519915 1329939694.329135 417 525 513 403 364 447
17.519915 1329939694.337498 412 529 511 399 370 445
17.561501 1329939694.345814 417 531 512 398 377 443
17.561501 1329939694.354132 412 532 515 397 383 438
17.603422 1329939694.369620 410 537 518 391 388 434
17.603422 1329939694.379894 412 539 522 394 386 426
17.645182 1329939694.387573 410 543 522 403 384 421
17.645182 1329939694.395832 408 553 521 406 384 416
17.678062 1329939694.404113 406 553 520 405 386 411
17.678062 1329939694.412548 405 552 520 402 387 410
17.720216 1329939694.420790 403 559 521 399 386 407
17.720216 1329939694.429091 401 566 520 395 383 402
17.759527 1329939694.437468 401 567 521 390 379 400
17.759527 1329939694.445780 402 575 520 387 378 396
17.803150 1329939694.454008 399 578 519 385 378 390
17.803150 1329939694.462566 398 577 521 382 383 381
17.844875 1329939694.470628 400 582 523 381 384 375
17.844875 1329939694.479045 400 587 527 382 380 364
17.878329 1329939694.487337 398 582 527 386 378 355
17.878329 1329939694.495878 396 583 527 386 378 347
17.919791 1329939694.503935 395 587 529 385 380 338
17.919791 1329939694.512277 396 582 531 380 378 329
17.961071 1329939694.520752 398 579 532 373 375 324
17.961071 1329939694.530829 400 576 533 363 370 319
18.002899 1329939694.537308 404 572 533 352 364 314
18.002899 1329939694.545860 407 563 532 339 360 312
18.038883 1329939694.553892 410 563 532 333 357 308
18.038883 1329939694.562371 414 562 530 328 350 307
18.078451 1329939694.570631 415 551 526 327 350 304
18.078451 1329939694.582652 417 541 524 325 350 297
18.119491 1329939694.589014 420 537 520 325 347 290
18.119491 1329939694.595747 419 534 517 324 344 286
18.160934 1329939694.604763 419 525 515 326 350 284
18.160934 1329939694.615080 423 519 515 330 361 282
18.202960 1329939694.620454 426 514 517 330 366 278
18.202960 1329939694.628961 428 506 518 330 364 277
18.240265 1329939694.637173 432 496 518 331 359 277
18.240265 1329939694.645761 434 488 517 335 358 278
18.277809 1329939694.653956 436 483 516 337 360 280
18.277809 1329939694.662401 438 477 517 340 363 285
18.319615 1329939694.670781 439 468 518 340 364 289
18.319615 1329939694.679232 440 462 514 337 359 294
18.360723 1329939694.687783 438 449 511 331 359 300
18.360723 1329939694.695987 435 445 511 332 363 307
18.402520 1329939694.704052 433 446 511 335 364 315
18.402520 1329939694.712410 432 443 511 342 363 322
18.446863 1329939694.720866 431 440 509 343 365 328
18.446863 1329939694.729367 433 436 506 336 368 338
18.485889 1329939694.740696 432 432 507 329 370 348
18.485889 1329939694.745964 428 435 508 328 375 352
18.519156 1329939694.756050 429 432 510 332 381 355
18.519156 1329939694.762248 431 428 512 339 391 359
18.562525 1329939694.770801 432 428 514 342 399 361
18.562525 1329939694.779121 431 430 518 346 406 364
18.602830 1329939694.787409 430 429 520 350 408 366
18.602830 1329939694.795897 430 430 524 354 409 368
18.644085 1329939694.804037 434 435 527 354 408 373
18.644085 1329939694.812647 434 435 527 356 406 376
18.686046 1329939694.820837 430 434 526 360 405 381
18.686046 1329939694.830594 429 444 527 362 412 388
18.719268 1329939694.837203 434 451 529 368 421 391
18.719268 1329939694.845905 434 441 530 379 426 395
18.758331 1329939694.853912 434 436 529 388 431 403
18.758331 1329939694.862278 434 448 529 378 432 411
18.806837 1329939694.870769 432 462 534 364 424 414
18.806837 1329939694.879186 431 466 537 367 418 411
18.848634 1329939694.887327 433 458 536 380 422 410
18.848634 1329939694.916464 434 465 532 381 432 411
18.877951 1329939694.926626 431 480 533 371 434 410
18.877951 1329939694.929037 427 485 532 368 432 402
18.919437 1329939694.937181 428 469 533 378 437 393
18.919437 1329939694.951452 433 467 532 383 450 399
18.960899 1329939694.953789 431 485 535 374 455 407
18.960899 1329939694.962342 429 497 539 365 449 401
19.003269 1329939694.970533 429 488 538 365 439 391
19.003269 1329939694.978940 430 477 537 371 440 388
19.044638 1329939694.987141 427 482 539 369 443 396
19.044638 1329939694.995665 428 495 540 366 437 398
19.078205 1329939695.004030 432 497 540 364 446 394
19.078205 1329939695.012330 432 488 544 371 469 389
19.120484 1329939695.021674 427 488 551 379 484 388
19.120484 1329939695.028733 427 501 555 380 484 385
19.162155 1329939695.037035 435 510 559 382 485 380
19.162155 1329939695.045216 439 504 563 388 494 377
19.203357 1329939695.053665 430 495 569 392 506 378
19.203357 1329939695.067687 430 499 576 390 504 381
19.245653 1329939695.069950 437 504 583 386 495 384
19.245653 1329939695.078858 447 503 590 390 488 387
19.278909 1329939695.092315 445 496 593 396 485 386
19.278909 1329939695.095102 445 487 598 394 485 380
19.320678 1329939695.103588 444 489 601 383 472 382
19.320678 1329939695.118488 448 496 604 371 452 386
19.376100 1329939695.128763 452 498 606 364 446 393
19.376100 1329939695.137012 452 492 606 358 456 397
19.402810 1329939695.144956 457 488 609 352 461 392
19.402810 1329939695.153475 454 490 611 346 452 393
19.445364 1329939695.161897 450 494 612 341 434 396
19.445364 1329939695.170090 452 496 612 341 422 398
19.479004 1329939695.179616 458 503 613 342 424 397
19.479004 1329939695.186883 463 505 614 346 433 391
19.520673 1329939695.194864 465 500 612 352 437 384
19.520673 1329939695.203351 460 495 612 361 433 384
19.562763 1329939695.211808 460 499 611 365 428 383
19.562763 1329939695.220074 463 501 608 362 424 384
19.612426 1329939695.229719 468 501 605 357 422 383
19.612426 1329939695.236834 471 501 605 353 420 383
19.645871 1329939695.245571 472 501 607 357 421 380
19.645871 1329939695.253372 475 502 609 363 423 376
19.679242 1329939695.270069 478 503 609 369 422 372
19.679242 1329939695.278277 483 504 610 371 422 372
19.720538 1329939695.292353 485 504 612 372 423 373
19.720538 1329939695.302631 487 503 615 375 418 374
19.760726 1329939695.303474 490 503 615 378 409 376
19.760726 1329939695.311831 492 505 615 380 403 377
19.807206 1329939695.319911 492 508 613 380 404 375
19.807206 1329939695.328238 493 505 611 379 406 374
19.845244 1329939695.336670 493 504 610 377 405 372
19.845244 1329939695.344891 495 505 611 377 399 371
19.889096 1329939695.354746 495 505 610 379 394 370
19.889096 1329939695.361520 495 505 610 380 393 371
19.920482 1329939695.370452 496 505 609 380 396 372
19.920482 1329939695.378117 497 501 609 377 396 371
19.976527 1329939695.386260 497 500 608 375 393 370
19.976527 1329939695.394681 498 502 607 376 392 370
20.003316 1329939695.405256 498 503 607 376 393 369
20.003316 1329939695.415545 500 502 608 372 394 368
20.043618 1329939695.419520 500 499 608 367 391 366
20.043618 1329939695.427968 500 500 609 368 385 365
20.078233 1329939695.436325 500 502 608 370 380 366
20.078233 1329939695.444579 499 503 607 373 380 367
20.119603 1329939695.453931 500 501 607 373 381 366
20.119603 1329939695.461284 502 500 606 375 380 366
20.161465 1329939695.469543 502 500 605 376 381 366
20.161465 1329939695.477767 501 501 606 375 383 367
20.210906 1329939695.485997 502 500 606 375 384 366
20.210906 1329939695.494573 505 498 607 375 384 365
20.244387 1329939695.502778 503 498 607 378 381 366
20.244387 1329939695.511078 503 499 607 379 379 367
20.285994 1329939695.519454 501 500 606 378 377 368
20.285994 1329939695.534516 502 500 605 376 375 368
20.319576 1329939695.536066 503 500 605 374 375 368
20.319576 1329939695.544510 502 500 605 371 375 368
20.361310 1329939695.552776 502 501 605 371 376 368
20.361310 1329939695.567449 501 502 604 373 377 370
20.403016 1329939695.569280 502 501 604 373 379 369
20.403016 1329939695.577890 505 500 605 374 380 370
20.448093 1329939695.586122 504 500 606 373 380 368
20.448093 1329939695.594877 504 501 605 373 377 370
20.482230 1329939695.602635 503 500 606 374 377 369
20.482230 1329939695.616672 504 501 606 373 378 369
20.527559 1329939695.628639 503 501 606 372 375 368
20.527559 1329939695.636073 503 499 606 373 374 367
20.563562 1329939695.644420 503 500 605 373 372 368
20.563562 1329939695.652852 503 501 605 374 374 369
20.603388 1329939695.660873 503 500 605 377 377 370
20.603388 1329939695.669393 502 499 605 376 378 372
20.644602 1329939695.687577 503 499 603 376 377 370
20.644602 1329939695.694415 503 500 603 374 375 371
20.677988 1329939695.702720 503 500 603 373 375 371
20.677988 1329939695.710999 502 500 604 373 377 371
20.719649 1329939695.719123 503 500 604 372 378 373
20.719649 1329939695.727534 502 502 604 373 378 373
20.767919 1329939695.741885 503 503 605 373 378 371
20.767919 1329939695.744382 503 501 604 373 378 371
20.803099 1329939695.752675 503 500 604 375 377 370
20.803099 1329939695.761265 504 501 604 376 378 369
20.844992 1329939695.769095 504 500 605 378 380 369
20.844992 1329939695.777663 504 500 605 378 380 368
20.890704 1329939695.806096 504 500 605 378 380 368
20.890704 1329939695.815749 504 500 606 377 383 369
20.920021 1329939695.819195 505 498 606 377 382 371
20.920021 1329939695.827723 505 498 606 378 378 373
20.961358 1329939695.835737 505 499 605 376 375 374
20.961358 1329939695.844017 504 499 604 375 376 374
21.002718 1329939695.852730 504 499 604 375 377 375
21.002718 1329939695.867326 504 500 604 376 380 374
21.047761 1329939695.879539 504 500 604 376 380 374
21.047761 1329939695.900157 502 502 605 375 380 375
21.100832 1329939695.910189 503 502 604 375 380 376
21.100832 1329939695.911152 502 502 606 374 380 375
21.119350 1329939695.919327 503 500 605 372 381 375
21.119350 1329939695.927635 502 500 605 373 379 373
21.160890 1329939695.935742 503 502 606 373 378 374
21.160890 1329939695.944311 503 502 606 374 379 373
21.202588 1329939695.952460 504 501 607 374 381 374
21.202588 1329939695.960832 505 501 608 375 379 373
21.246173 1329939695.969259 505 501 607 377 377 372
21.246173 1329939695.977695 504 502 607 374 375 370
21.285537 1329939695.985829 505 501 607 376 376 370
21.285537 1329939695.994331 505 501 606 375 374 369
21.325654 1329939696.002449 505 500 606 376 374 369
21.325654 1329939696.011031 505 499 605 375 375 370
21.360581 1329939696.019192 505 500 605 373 375 370
21.360581 1329939696.027751 505 500 604 372 375 370
21.402409 1329939696.035750 505 501 604 372 374 370
21.402409 1329939696.046801 505 500 605 374 375 370
21.443933 1329939696.052479 504 499 604 374 377 370
21.443933 1329939696.060795 504 501 604 377 377 371
21.485412 1329939696.069184 504 501 605 376 378 370
21.485412 1329939696.077707 504 500 606 377 377 371
21.518957 1329939696.085716 503 500 606 377 374 371
21.518957 1329939696.098034 503 498 605 375 375 372
21.560269 1329939696.127977 503 498 606 373 376 372
21.560269 1329939696.139687 503 500 606 373 378 372
21.602179 1329939696.143948 504 500 606 371 378 371
21.602179 1329939696.152550 505 499 606 372 376 370
21.644053 1329939696.160739 505 499 607 372 375 370
21.644053 1329939696.169277 505 500 607 373 375 371
21.685725 1329939696.188201 505 500 606 375 374 370
21.685725 1329939696.194085 506 499 605 373 376 373
21.719074 1329939696.202574 506 499 605 371 376 373
21.719074 1329939696.210773 506 501 604 369 376 373
21.760531 1329939696.219114 506 501 604 370 374 374
21.760531 1329939696.227687 506 500 603 372 374 374
21.802108 1329939696.239549 505 501 602 373 376 374
21.802108 1329939696.245477 505 500 603 372 378 374
21.843965 1329939696.252406 504 500 604 373 378 375
21.843965 1329939696.261220 503 502 605 375 379 375
21.882913 1329939696.268953 501 501 607 374 379 375
21.882913 1329939696.277539 498 501 611 376 380 376
21.918968 1329939696.285521 496 501 616 376 380 375
21.918968 1329939696.298788 492 501 622 375 376 377
21.960233 1329939696.302242 490 501 628 373 367 376
21.960233 1329939696.310754 487 503 634 373 358 374
22.002699 1329939696.318991 484 502 639 374 348 373
22.002699 1329939696.327211 482 503 644 374 335 373
22.043866 1329939696.335432 481 504 647 377 320 373
22.043866 1329939696.347976 479 505 648 380 304 372
22.085311 1329939696.359804 477 503 646 383 290 370
22.085311 1329939696.360827 474 501 644 384 283 369
22.118992 1329939696.368816 473 501 640 383 276 367
22.118992 1329939696.377357 472 502 638 379 270 367
22.159983 1329939696.385575 472 503 636 381 259 367
22.159983 1329939696.393880 468 501 632 383 252 368
22.201700 1329939696.410680 470 500 628 380 247 366
22.201700 1329939696.422394 471 497 623 384 245 365
22.242998 1329939696.427112 467 493 619 389 239 365
22.242998 1329939696.435599 466 491 611 393 232 365
22.284690 1329939696.443682 467 498 603 393 225 364
22.284690 1329939696.452245 462 501 597 390 229 359
22.325571 1329939696.460417 458 495 593 386 241 354
22.325571 1329939696.471279 458 490 587 378 252 351
22.358798 1329939696.476922 453 491 581 375 254 353
22.358798 1329939696.485475 453 493 575 377 250 359
22.398886 1329939696.493539 455 496 570 383 251 364
22.398886 1329939696.501977 448 497 565 389 260 362
22.441006 1329939696.510919 446 496 561 394 271 358
22.441006 1329939696.531411 443 495 557 398 279 355
22.482613 1329939696.535266 442 495 553 396 287 356
22.482613 1329939696.543705 441 494 554 399 298 358
22.523935 1329939696.551861 438 494 553 408 308 355
22.523935 1329939696.560492 437 494 550 419 316 354
22.565337 1329939696.568464 437 492 548 419 323 351
22.565337 1329939696.576996 438 493 547 414 327 351
22.604420 1329939696.585186 436 485 547 404 328 349
22.604420 1329939696.593577 435 478 545 398 325 350
22.640986 1329939696.601763 436 481 545 393 321 351
22.640986 1329939696.610202 436 486 542 392 320 351
22.682340 1329939696.618437 437 486 542 390 326 352
22.682340 1329939696.626887 435 476 541 392 332 354
22.723234 1329939696.635925 437 470 541 393 334 354
22.723234 1329939696.643528 439 470 540 395 331 356
22.764771 1329939696.651935 439 471 537 395 332 362
22.764771 1329939696.659812 436 472 535 394 334 367
22.798335 1329939696.672910 438 472 533 391 336 369
22.798335 1329939696.676717 438 467 531 389 341 371
22.839812 1329939696.686159 434 465 529 388 350 375
22.839812 1329939696.693464 431 466 528 384 354 381
22.880113 1329939696.701670 430 467 527 382 353 386
22.880113 1329939696.709888 426 463 527 381 355 390
22.923142 1329939696.718241 421 459 528 378 358 390
22.923142 1329939696.726855 420 459 530 376 357 396
22.964608 1329939696.740465 420 462 532 373 351 398
22.964608 1329939696.743220 419 462 531 373 349 403
23.022996 1329939696.751682 418 463 530 374 352 408
23.022996 1329939696.761255 419 465 528 372 354 411
23.039628 1329939696.768211 418 466 527 369 354 416
23.039628 1329939696.785433 418 466 524 368 356 420
23.092159 1329939696.805903 419 468 522 366 358 423
23.092159 1329939696.815636 420 474 521 367 360 425
23.122772 1329939696.818090 421 478 518 368 359 427
23.122772 1329939696.826646 422 482 517 369 363 427
23.164428 1329939696.834867 422 484 516 371 370 426
23.164428 1329939696.844693 420 489 516 370 375 424
23.203182 1329939696.851289 420 493 516 373 378 422
23.203182 1329939696.865959 420 493 517 373 386 422
23.239522 1329939696.868144 421 494 520 371 392 422
23.239522 1329939696.876540 420 502 523 371 391 420
23.280998 1329939696.885007 418 506 526 370 386 419
23.280998 1329939696.893084 420 508 527 371 382 422
23.318256 1329939696.901280 421 517 527 371 375 423
23.318256 1329939696.909740 421 522 527 373 372 424
23.364298 1329939696.926177 421 523 527 378 378 424
23.364298 1329939696.926893 422 526 526 382 378 422
23.397508 1329939696.934728 423 529 527 386 376 420
23.397508 1329939696.943009 423 531 527 392 374 418
23.439128 1329939696.951231 425 534 525 396 374 412
23.439128 1329939696.959796 429 535 524 395 376 410
23.480736 1329939696.972051 430 537 523 391 375 412
23.480736 1329939696.976374 427 541 520 384 368 417
23.522549 1329939696.984818 423 540 518 380 364 415
23.522549 1329939696.993132 420 535 515 387 365 409
23.564201 1329939697.001237 417 536 515 392 371 404
23.564201 1329939697.009596 414 542 517 397 377 399
23.605777 1329939697.019866 412 543 516 399 383 397
23.605777 1329939697.026637 409 542 516 397 392 396
23.639079 1329939697.034881 408 543 519 393 402 396
23.639079 1329939697.043125 409 546 524 388 407 392
23.680790 1329939697.051260 410 545 529 387 407 390
23.680790 1329939697.059540 410 548 533 387 406 390
23.722394 1329939697.075994 410 550 538 385 404 387
23.722394 1329939697.076851 409 550 540 383 397 385
23.764066 1329939697.084654 409 553 540 380 391 384
23.764066 1329939697.092993 410 554 541 378 386 381
23.802536 1329939697.101135 408 553 541 378 384 380
23.802536 1329939697.109688 407 553 542 380 385 378
23.839225 1329939697.118168 409 554 543 380 384 374
23.839225 1329939697.132079 408 555 544 380 383 373
23.880803 1329939697.136066 407 554 545 381 381 371
23.880803 1329939697.142734 408 555 546 379 381 370
23.922314 1329939697.151425 409 554 547 378 378 366
23.922314 1329939697.159685 409 553 548 376 372 364
23.961714 1329939697.173161 409 554 547 372 366 360
23.961714 1329939697.185530 410 553 546 370 363 358
24.005445 1329939697.192801 410 551 544 368 361 355
24.005445 1329939697.206444 411 553 543 367 359 353
24.038611 1329939697.209362 411 554 541 365 356 352
24.038611 1329939697.217737 410 551 540 365 355 351
24.086989 1329939697.226395 410 549 539 364 355 349
24.086989 1329939697.234578 412 549 537 363 355 350
24.122209 1329939697.244684 413 548 535 361 354 348
24.122209 1329939697.252035 414 546 533 359 354 346
24.163569 1329939697.261091 415 547 532 359 355 345
24.163569 1329939697.267766 414 547 530 358 355 341
24.208096 1329939697.282723 414 544 530 359 354 338
24.208096 1329939697.284569 416 542 530 358 352 337
24.238358 1329939697.296322 416 542 528 360 352 334
24.238358 1329939697.301080 416 541 528 364 353 331
24.279985 1329939697.309566 417 540 527 367 355 329
24.279985 1329939697.317753 417 536 525 369 352 327
24.321619 1329939697.331482 416 532 524 369 349 324
24.321619 1329939697.334571 416 528 521 366 349 322
24.363269 1329939697.345181 417 527 518 358 350 321
24.363269 1329939697.351007 417 525 516 355 352 320
24.406202 1329939697.359375 418 524 516 352 358 320
24.406202 1329939697.367735 420 522 515 348 363 320
24.441555 1329939697.376289 419 520 516 351 366 319
24.441555 1329939697.384450 420 515 516 353 366 319
24.479849 1329939697.392746 421 512 515 351 366 319
24.479849 1329939697.400991 420 512 515 347 365 317
24.521716 1329939697.409336 422 509 514 348 364 314
24.521716 1329939697.418023 422 506 513 351 363 312
24.562897 1329939697.426410 421 506 512 352 364 310
24.562897 1329939697.442127 418 500 510 353 362 309
24.608835 1329939697.443154 418 496 509 356 366 310
24.608835 1329939697.454800 420 494 510 355 369 311
24.637792 1329939697.459498 420 490 510 354 372 311
24.637792 1329939697.468008 419 486 510 354 373 310
24.679769 1329939697.476489 422 486 513 354 378 310
24.679769 1329939697.484862 422 484 514 355 381 308
24.720996 1329939697.493172 422 479 515 356 378 308
24.720996 1329939697.503464 422 477 515 355 375 309
24.762950 1329939697.511087 421 477 516 355 373 307
24.762950 1329939697.518097 422 473 515 355 370 305
24.804457 1329939697.527123 422 467 514 357 367 304
24.804457 1329939697.534679 422 469 512 356 365 304
24.837751 1329939697.551757 422 469 511 356 367 306
24.837751 1329939697.560122 422 463 509 358 368 309
24.879701 1329939697.567932 423 460 509 357 370 312
24.879701 1329939697.576227 424 457 509 360 373 312
24.918170 1329939697.584607 423 450 508 367 377 313
24.918170 1329939697.593088 424 448 508 372 381 315
24.962896 1329939697.601365 425 448 509 372 387 316
24.962896 1329939697.609612 423 444 511 373 388 317
25.004176 1329939697.618040 422 438 511 374 387 322
25.004176 1329939697.626112 423 437 512 370 388 323
25.043945 1329939697.636264 424 436 513 369 389 327
25.043945 1329939697.642913 422 435 514 367 387 328
25.088585 1329939697.652067 422 430 514 366 390 330
25.088585 1329939697.659397 423 429 515 367 391 333
25.121537 1329939697.667931 423 429 517 367 391 336
25.121537 1329939697.676086 423 427 518 370 392 338
25.163090 1329939697.684605 425 423 520 372 394 340
25.163090 1329939697.693156 424 421 521 373 391 345
25.204479 1329939697.701288 423 417 522 371 390 348
25.204479 1329939697.709535 422 416 524 369 390 354
25.237764 1329939697.725550 421 414 525 369 388 361
25.237764 1329939697.727046 421 412 525 366 383 367
25.279631 1329939697.734856 421 412 525 364 380 371
25.279631 1329939697.744977 420 413 525 360 379 377
25.321491 1329939697.751572 419 414 525 360 378 381
25.321491 1329939697.759749 419 414 525 358 376 387
25.362767 1329939697.793491 419 417 525 357 377 389
25.362767 1329939697.801565 419 420 526 358 379 393
25.404524 1329939697.810017 419 422 528 360 379 395
25.404524 1329939697.818042 420 425 529 364 379 399
25.437778 1329939697.826779 419 427 530 368 377 400
25.437778 1329939697.834581 419 426 532 374 374 401
25.479379 1329939697.842992 420 428 531 381 374 403
25.479379 1329939697.851563 421 431 529 386 369 405
25.524905 1329939697.859797 421 431 527 387 368 408
25.524905 1329939697.868296 422 431 526 390 369 411
25.562409 1329939697.877055 421 433 524 392 369 416
25.562409 1329939697.884948 423 437 525 395 370 419
25.604039 1329939697.893115 423 439 526 395 370 422
25.604039 1329939697.902566 423 440 525 395 370 424
25.645227 1329939697.910169 424 443 525 395 368 426
25.645227 1329939697.918600 424 446 524 396 371 429
25.678638 1329939697.926679 422 452 522 394 372 432
25.678638 1329939697.942140 421 457 521 390 370 435
25.742171 1329939697.943976 421 460 520 390 371 437
25.742171 1329939697.957383 422 462 519 394 372 438
25.761580 1329939697.959936 421 465 517 393 371 439
25.761580 1329939697.968325 421 468 515 392 371 438
25.814650 1329939697.976953 420 470 515 393 373 438
25.814650 1329939697.984913 423 473 516 395 376 439
25.845037 1329939697.993305 423 476 517 396 376 440
25.845037 1329939698.001931 421 482 518 394 374 439
25.878469 1329939698.010241 419 485 518 390 373 437
25.878469 1329939698.018542 424 485 519 391 372 438
25.920101 1329939698.026781 424 486 520 394 371 440
25.920101 1329939698.035131 421 494 519 393 370 440
25.961759 1329939698.043446 420 500 518 393 370 439
25.961759 1329939698.051975 422 505 518 394 371 441
26.003054 1329939698.060627 423 503 517 395 370 439
26.003054 1329939698.068684 424 504 518 396 372 437
26.044980 1329939698.077341 423 512 518 395 374 437
26.044980 1329939698.085321 423 520 520 398 375 434
26.078411 1329939698.093613 423 522 520 401 375 430
26.078411 1329939698.102080 423 525 519 396 374 428
26.119900 1329939698.110790 422 530 518 389 371 428
26.119900 1329939698.118790 421 530 517 386 370 428
26.161491 1329939698.127541 418 532 516 387 371 426
26.161491 1329939698.135525 418 535 515 390 371 424
26.203129 1329939698.143716 417 538 514 394 370 422
26.203129 1329939698.152291 416 537 512 399 371 421
26.242968 1329939698.160865 415 539 512 400 371 418
26.242968 1329939698.168909 414 542 512 398 371 413
26.277982 1329939698.177652 416 544 510 399 371 409
26.277982 1329939698.185633 417 546 510 400 374 407
26.319869 1329939698.193743 418 546 512 403 380 408
26.319869 1329939698.202411 415 546 512 405 385 405
26.361389 1329939698.211118 410 547 511 401 385 401
26.361389 1329939698.219140 410 549 512 394 385 398
26.403093 1329939698.227740 410 549 512 391 384 394
26.403093 1329939698.235981 410 549 511 386 384 392
26.437812 1329939698.244139 409 552 512 382 389 390
26.437812 1329939698.252624 408 553 513 379 393 387
26.477791 1329939698.261649 410 551 514 378 394 387
26.477791 1329939698.269588 411 553 516 375 393 387
26.521158 1329939698.278066 413 558 519 371 394 385
26.521158 1329939698.285963 413 558 520 369 394 383
26.562834 1329939698.294339 413 557 522 368 392 383
26.562834 1329939698.302735 413 561 523 364 390 382
26.602873 1329939698.311238 414 564 524 361 387 380
26.602873 1329939698.319185 413 562 525 360 385 377
26.644506 1329939698.327596 412 560 527 363 387 374
26.644506 1329939698.336085 412 567 528 363 387 372
26.677967 1329939698.344296 411 570 529 362 386 368
26.677967 1329939698.352467 410 567 530 361 382 364
26.719519 1329939698.370336 410 564 530 361 380 361
26.719519 1329939698.402731 408 565 530 360 379 355
26.757809 1329939698.415601 407 567 530 361 377 350
26.757809 1329939698.421268 408 564 531 363 375 347
26.797851 1329939698.427701 410 565 532 366 372 344
26.797851 1329939698.436104 411 565 532 367 370 338
26.844232 1329939698.444615 411 560 532 366 367 332
26.844232 1329939698.466713 410 558 530 362 365 328
26.881881 1329939698.470212 411 561 529 357 365 323
26.881881 1329939698.478118 413 559 528 354 361 318
26.919032 1329939698.486033 414 553 526 354 358 314
26.919032 1329939698.494849 417 553 524 351 355 312
26.960732 1329939698.503024 418 554 522 352 356 311
26.960732 1329939698.524305 418 543 519 351 358 309
27.008759 1329939698.537156 417 536 520 355 363 308
27.008759 1329939698.544589 419 538 522 357 366 306
27.043890 1329939698.552701 421 537 522 357 368 302
27.043890 1329939698.561132 419 529 522 357 365 299
27.078133 1329939698.569461 421 526 521 356 361 297
27.078133 1329939698.577347 422 525 519 358 359 296
27.118950 1329939698.586077 422 517 516 360 357 294
27.118950 1329939698.594381 422 512 513 359 357 291
27.162349 1329939698.602462 422 510 512 361 361 290
27.162349 1329939698.610846 421 503 512 366 364 290
27.203117 1329939698.619296 423 496 510 368 366 292
27.203117 1329939698.627376 425 493 510 372 368 295
27.243359 1329939698.636070 425 491 510 370 369 295
27.243359 1329939698.644320 427 488 509 368 369 295
27.289001 1329939698.652604 427 483 510 367 370 297
27.289001 1329939698.661016 424 479 510 366 371 296
27.324525 1329939698.669413 426 475 508 367 369 296
27.324525 1329939698.677238 428 475 509 364 368 297
27.360372 1329939698.694263 428 473 509 361 368 298
27.360372 1329939698.718213 429 466 509 359 369 298
27.401884 1329939698.733003 428 465 509 355 370 301
27.401884 1329939698.736261 427 467 508 347 370 300
27.443352 1329939698.744523 425 458 509 346 368 303
27.443352 1329939698.752535 429 449 508 350 368 307
27.485422 1329939698.761257 430 445 507 351 366 311
27.485422 1329939698.769533 426 442 506 352 369 315
27.518655 1329939698.777839 424 438 506 357 373 318
27.518655 1329939698.786085 426 431 506 363 378 318
27.566973 1329939698.794672 425 427 505 363 383 323
27.566973 1329939698.802501 424 423 505 361 384 330
27.602094 1329939698.810947 422 425 506 361 383 334
27.602094 1329939698.819393 424 423 508 359 386 338
27.643865 1329939698.827627 424 418 509 357 388 344
27.643865 1329939698.835828 428 417 510 351 389 352
27.677316 1329939698.844442 427 420 513 348 389 356
27.677316 1329939698.852438 423 418 514 348 387 361
27.719057 1329939698.861395 426 417 515 349 386 368
27.719057 1329939698.880844 432 421 518 350 386 374
27.760427 1329939698.886012 432 424 519 347 387 377
27.760427 1329939698.894312 429 424 518 343 387 382
27.802310 1329939698.902430 433 428 518 339 384 385
27.802310 1329939698.910852 439 434 519 336 385 389
27.843609 1329939698.926301 433 437 519 336 389 393
27.843609 1329939698.929555 434 435 518 336 391 400
27.879181 1329939698.935821 436 441 519 334 394 403
27.879181 1329939698.944184 435 451 520 333 396 402
27.918396 1329939698.952585 429 452 521 343 401 405
27.918396 1329939698.960852 436 445 522 354 407 407
27.960230 1329939698.968770 439 449 521 358 416 408
27.960230 1329939698.983526 437 461 521 352 418 406
28.001831 1329939698.986809 429 463 521 347 416 405
28.001831 1329939698.993927 435 459 523 350 424 406
28.040332 1329939699.002145 441 458 525 355 436 408
28.040332 1329939699.010433 442 466 526 352 447 409
28.076594 1329939699.018841 434 477 526 344 452 408
28.076594 1329939699.027036 431 474 531 346 453 407
28.118730 1329939699.035463 438 470 535 358 457 406
28.118730 1329939699.043670 440 470 538 363 464 409
28.158684 1329939699.052226 442 478 539 359 468 410
28.158684 1329939699.060333 442 484 541 357 462 403
28.203998 1329939699.068866 434 471 545 366 462 396
28.203998 1329939699.079134 430 464 550 371 469 393
28.242555 1329939699.085314 432 480 555 367 472 395
28.242555 1329939699.093624 440 497 557 360 461 397
28.277862 1329939699.102135 449 502 562 364 455 394
28.277862 1329939699.110247 441 492 566 368 456 391
28.320123 1329939699.118573 438 484 566 370 454 391
28.320123 1329939699.132753 444 487 566 370 445 391
28.361864 1329939699.135754 450 488 569 374 446 390
28.361864 1329939699.143482 444 488 577 381 461 390
28.405265 1329939699.151750 438 493 582 378 470 391
28.405265 1329939699.160386 439 499 582 372 455 392
28.445123 1329939699.168326 442 500 582 363 431 388
28.445123 1329939699.176819 441 495 586 356 423 384
28.478707 1329939699.187166 429 489 591 353 432 387
28.478707 1329939699.193463 433 487 594 351 439 397
28.519926 1329939699.201628 439 492 594 346 432 408
28.519926 1329939699.210085 440 500 598 342 426 411
28.561833 1329939699.218506 439 501 599 344 433 402
28.561833 1329939699.227015 440 492 601 353 446 395
28.603718 1329939699.243488 443 489 604 360 458 395
28.603718 1329939699.255656 445 502 606 365 455 395
28.645428 1329939699.260701 451 514 607 368 449 394
28.645428 1329939699.268504 455 512 609 371 450 386
28.678742 1329939699.276984 458 501 610 372 450 376
28.678742 1329939699.285327 461 497 610 379 442 374
28.720354 1329939699.306214 458 503 609 383 433 378
28.720354 1329939699.311959 458 507 608 385 431 381
28.762013 1329939699.318489 461 504 608 382 434 384
28.762013 1329939699.326491 466 498 609 378 434 385
28.803067 1329939699.335495 468 498 610 375 429 384
28.803067 1329939699.343547 465 503 611 371 428 385
28.839527 1329939699.351847 467 501 611 372 427 385
28.839527 1329939699.360126 472 499 612 374 420 384
28.887123 1329939699.368658 475 499 612 376 409 385
28.887123 1329939699.376422 475 500 610 374 404 383
28.919718 1329939699.385191 476 502 609 371 404 379
28.919718 1329939699.393581 477 501 608 370 403 374
28.961131 1329939699.401740 478 501 607 371 399 372
28.961131 1329939699.419028 479 502 605 368 394 372
29.002928 1329939699.441795 479 500 604 364 397 373
29.002928 1329939699.444744 481 499 607 364 404 376
29.044998 1329939699.451818 482 500 610 368 406 375
29.044998 1329939699.460508 485 502 611 372 400 374
29.078204 1329939699.468383 486 503 612 370 394 374
29.078204 1329939699.476365 486 503 611 370 393 371
29.119424 1329939699.492500 487 501 610 371 392 369
29.119424 1329939699.497273 488 501 610 372 394 369
29.161149 1329939699.501695 490 502 609 371 396 367
29.161149 1329939699.510207 490 502 609 368 395 365
29.203156 1329939699.518549 490 501 607 368 392 364
29.203156 1329939699.526598 490 501 605 371 389 365
29.244581 1329939699.535231 489 501 603 375 393 366
29.244581 1329939699.543381 491 502 602 377 397 366
29.277930 1329939699.551774 493 502 602 377 394 365
29.277930 1329939699.560372 493 499 605 377 392 365
29.319280 1329939699.568516 495 499 606 380 390 364
29.319280 1329939699.576455 497 501 606 385 389 363
29.360983 1329939699.585147 496 501 606 386 390 363
29.360983 1329939699.595310 497 498 607 382 388 365
29.402813 1329939699.601679 498 497 607 379 387 367
29.402813 1329939699.609992 498 498 608 381 388 368
29.444596 1329939699.618372 498 498 607 379 387 368
29.444596 1329939699.626596 497 497 606 375 385 368
29.477488 1329939699.634670 498 497 606 371 382 367
29.477488 1329939699.648896 498 498 606 370 380 369
29.519663 1329939699.651895 497 498 604 374 378 369
29.519663 1329939699.659477 497 499 604 375 381 368
29.567978 1329939699.668180 497 498 604 376 383 368
29.567978 1329939699.676680 498 497 604 375 382 368
29.602738 1329939699.684814 499 498 606 372 381 368
29.602738 1329939699.693024 499 499 606 370 381 368
29.644113 1329939699.702477 499 500 606 371 380 370
29.644113 1329939699.709727 500 500 607 373 380 370
29.677612 1329939699.718154 501 499 607 375 380 370
29.677612 1329939699.726670 500 498 607 375 380 370
29.719198 1329939699.734583 501 497 607 374 378 369
29.719198 1329939699.743115 500 498 607 374 376 369
29.767921 1329939699.758207 500 499 605 374 374 370
29.767921 1329939699.770457 499 497 604 372 372 369
29.802337 1329939699.776739 499 497 603 372 374 370
29.802337 1329939699.784920 499 498 602 371 374 373
29.843739 1329939699.792885 499 499 602 371 375 373
29.843739 1329939699.801648 500 498 602 372 378 372
29.879387 1329939699.822303 500 498 602 373 379 372
29.879387 1329939699.827768 500 499 602 373 381 372
29.918875 1329939699.834335 501 500 604 372 381 371
29.918875 1329939699.842809 501 500 604 374 381 371
29.960394 1329939699.851608 501 499 605 375 381 371
29.960394 1329939699.859626 501 497 606 375 382 369
30.002389 1329939699.867957 501 498 605 375 381 369
30.002389 1329939699.875837 501 499 606 377 379 369
30.043532 1329939699.884601 501 500 605 377 379 369
30.043532 1329939699.893137 501 499 604 377 379 372
30.085624 1329939699.901345 501 498 605 374 381 372
30.085624 1329939699.909284 502 497 606 373 381 372
30.118555 1329939699.918419 502 499 605 374 379 372
30.118555 1329939699.925945 502 500 605 372 378 371
30.160282 1329939699.934284 502 499 604 370 378 371
30.160282 1329939699.942817 501 499 605 372 378 373
30.202061 1329939699.951344 502 500 605 373 379 374
30.202061 1329939699.959656 502 501 605 375 379 373
30.237761 1329939699.970732 502 499 605 376 378 371
30.237761 1329939699.976066 502 499 604 375 377 371
30.288338 1329939699.984574 501 500 604 374 378 370
30.288338 1329939699.993270 501 500 605 373 377 371
30.318775 1329939700.001138 502 499 605 373 378 372
30.318775 1329939700.009475 503 499 604 373 377 371
30.359642 1329939700.017607 502 499 604 374 379 372
30.359642 1329939700.025956 502 498 605 373 382 371
30.401937 1329939700.034289 503 498 606 372 381 372
30.401937 1329939700.042585 503 499 606 372 380 373
30.447013 1329939700.051308 504 500 605 372 378 373
30.447013 1329939700.059417 503 499 605 372 378 373
30.490915 1329939700.075465 502 498 605 372 379 372
30.490915 1329939700.078655 503 499 606 371 379 373
30.518231 1329939700.084841 503 500 606 373 377 373
30.518231 1329939700.093078 503 500 605 374 377 374
30.560041 1329939700.101261 503 500 605 372 377 373
30.560041 1329939700.109723 503 500 606 372 378 372
30.600873 1329939700.117491 503 500 606 373 377 373
30.600873 1329939700.126130 503 500 604 374 375 373
30.642926 1329939700.134580 503 500 605 375 377 373
30.642926 1329939700.142781 502 500 605 374 378 373
30.685220 1329939700.151070 503 500 605 373 379 374
30.685220 1329939700.159471 503 499 605 372 378 373
30.726037 1329939700.167680 503 499 605 373 377 373
30.726037 1329939700.176124 503 499 606 373 377 373
30.759603 1329939700.184719 503 500 606 374 378 373
30.759603 1329939700.192631 503 500 606 374 377 370
30.801509 1329939700.200925 502 500 605 374 377 371
30.801509 1329939700.209127 502 501 605 373 377 372
30.842635 1329939700.217422 503 501 605 373 378 372
30.842635 1329939700.225923 503 501 604 373 377 371
30.896970 1329939700.234434 503 499 604 373 378 371
30.896970 1329939700.242937 503 499 605 375 380 373
30.917743 1329939700.250928 503 500 605 377 382 372
30.917743 1329939700.259504 503 502 606 378 383 373
30.965042 1329939700.271168 503 501 606 378 381 372
30.965042 1329939700.275691 502 499 606 374 380 373
31.001136 1329939700.284104 503 499 606 375 377 373
31.001136 1329939700.292706 501 501 607 375 375 372
31.042738 1329939700.300723 499 500 607 375 378 371
31.042738 1329939700.309175 498 499 609 373 381 371
31.084287 1329939700.325268 497 499 612 374 380 372
31.084287 1329939700.337464 496 499 615 378 377 372
31.117742 1329939700.343136 493 499 619 380 374 370
31.117742 1329939700.351005 491 499 623 380 372 372
31.159940 1329939700.359340 490 499 629 378 366 372
31.159940 1329939700.367522 488 497 634 380 354 370
31.201514 1329939700.375752 480 496 641 381 348 371
31.201514 1329939700.391463 479 497 647 376 343 370
31.245305 1329939700.394309 480 500 654 376 330 370
31.245305 1329939700.400677 477 502 659 384 311 370
31.284531 1329939700.409322 476 498 660 391 295 370
31.284531 1329939700.417453 478 497 659 391 278 369
31.317872 1329939700.426062 477 498 658 387 262 370
31.317872 1329939700.434333 475 496 654 391 248 371
31.359057 1329939700.442629 476 492 648 389 238 373
31.359057 1329939700.450420 478 495 642 387 230 374
31.400589 1329939700.459164 476 494 638 386 223 375
31.400589 1329939700.467142 478 493 631 387 214 375
31.442414 1329939700.475675 478 493 622 382 206 373
31.442414 1329939700.484101 477 495 613 378 202 371
31.482942 1329939700.494289 476 495 602 375 203 371
31.482942 1329939700.500481 471 496 592 372 206 372
31.529232 1329939700.509102 468 494 582 373 215 370
31.529232 1329939700.517488 462 495 573 372 225 369
31.579177 1329939700.525788 456 500 564 372 235 370
31.579177 1329939700.534103 450 504 560 372 247 370
31.604470 1329939700.545359 443 500 558 377 264 366
31.604470 1329939700.550370 440 494 557 387 274 363
31.640130 1329939700.559020 440 492 553 395 279 363
31.640130 1329939700.567118 436 499 549 397 281 366
31.681468 1329939700.575909 432 496 545 393 284 366
31.681468 1329939700.583913 431 489 541 387 291 366
31.723105 1329939700.592655 431 489 539 383 295 368
31.723105 1329939700.600362 431 497 538 385 297 373
31.764683 1329939700.608867 432 498 535 391 305 367
31.764683 1329939700.617279 434 495 531 390 320 362
31.806158 1329939700.625773 431 490 530 384 330 356
31.806158 1329939700.634062 434 488 529 378 329 356
31.839088 1329939700.642410 438 491 530 373 330 355
31.839088 1329939700.657412 439 492 531 373 336 351
31.880787 1329939700.660378 436 489 531 375 343 350
31.880787 1329939700.667390 435 489 531 377 344 349
31.922623 1329939700.675604 433 486 530 378 341 350
31.922623 1329939700.683829 435 484 530 379 339 350
31.964028 1329939700.692178 435 480 531 384 340 351
31.964028 1329939700.700362 439 476 531 386 344 353
31.997651 1329939700.708486 434 469 530 381 349 356
31.997651 1329939700.717569 433 461 530 378 352 362
32.038971 1329939700.725755 432 460 531 374 355 372
32.038971 1329939700.733740 430 457 533 375 353 381
32.080694 1329939700.741992 431 453 532 376 348 390
32.080694 1329939700.761747 429 454 529 373 346 399
32.122374 1329939700.767022 426 457 527 373 347 406
32.122374 1329939700.775713 423 459 524 370 348 413
32.166174 1329939700.783683 424 465 522 369 349 416
32.166174 1329939700.792240 425 466 521 369 349 417
32.205573 1329939700.813693 425 465 518 371 355 421
32.205573 1329939700.817315 425 470 517 374 359 425
32.238783 1329939700.825517 423 478 516 375 359 427
32.238783 1329939700.834199 421 482 514 380 362 429
32.280420 1329939700.842925 425 483 514 385 368 433
32.280420 1329939700.850828 425 489 513 389 370 436
32.322106 1329939700.859130 422 493 513 391 370 438
32.322106 1329939700.873049 423 500 513 391 372 439
32.363888 1329939700.876445 424 505 514 392 378 439
32.363888 1329939700.884174 424 508 516 393 383 439
32.401964 1329939700.892685 425 514 517 393 382 436
32.401964 1329939700.900877 424 521 518 389 378 434
32.446719 1329939700.908947 423 526 518 386 375 430
32.446719 1329939700.917446 423 529 518 389 375 429
32.480165 1329939700.925469 421 536 518 388 377 425
32.480165 1329939700.934136 420 537 518 390 380 420
32.522062 1329939700.942803 419 539 518 388 383 419
32.522062 1329939700.950789 420 544 521 391 384 416
32.571403 1329939700.966555 419 543 521 396 382 411
32.571403 1329939700.969865 419 543 522 399 383 410
32.605203 1329939700.975155 419 546 523 401 382 408
32.605203 1329939700.984000 418 544 523 403 380 405
32.638592 1329939700.991900 416 541 522 403 382 403
32.638592 1329939701.000151 416 546 521 400 386 403
32.680101 1329939701.008590 415 548 523 395 389 403
32.680101 1329939701.016705 416 547 525 391 388 403
32.719653 1329939701.025092 416 546 526 389 387 403
32.719653 1329939701.033643 415 544 526 387 386 400
32.763567 1329939701.041877 417 545 528 387 387 400
32.763567 1329939701.049833 417 544 528 384 387 400
32.805119 1329939701.058365 416 546 529 380 386 400
32.805119 1329939701.066514 418 550 530 374 385 399
32.852026 1329939701.074692 419 551 531 368 383 399
32.852026 1329939701.082971 417 551 530 367 380 399
32.880011 1329939701.091568 418 554 530 367 379 398
32.880011 1329939701.099215 420 558 529 367 379 397
32.922134 1329939701.112152 417 557 527 369 378 393
32.922134 1329939701.115725 417 557 526 372 381 388
32.976020 1329939701.124160 418 560 528 376 382 385
32.976020 1329939701.132648 416 560 529 383 383 382
32.996527 1329939701.140714 415 558 529 384 381 380
32.996527 1329939701.148983 417 560 530 382 381 380
33.038430 1329939701.162101 417 560 530 382 382 378
33.038430 1329939701.167754 419 558 531 380 384 378
33.079759 1329939701.173909 421 558 532 380 384 375
33.079759 1329939701.183929 422 557 533 379 383 373
33.121505 1329939701.190141 420 558 532 377 381 374
33.121505 1329939701.199786 421 560 533 372 378 374
33.163058 1329939701.210538 420 559 532 371 373 373
33.163058 1329939701.223826 418 556 531 376 374 371
33.196454 1329939701.231361 416 559 530 380 378 369
33.196454 1329939701.239602 417 562 531 378 380 367
33.243397 1329939701.247649 417 559 533 379 381 365
33.243397 1329939701.256047 417 557 532 376 379 364
33.279781 1329939701.264660 418 557 533 374 378 363
33.279781 1329939701.282190 419 556 533 374 378 360
33.321256 1329939701.289328 420 555 535 373 376 361
33.321256 1329939701.297676 420 556 534 373 374 359
33.356313 1329939701.306018 421 555 532 373 372 358
33.356313 1329939701.314287 421 552 531 373 371 357
33.396421 1329939701.331536 421 553 531 373 372 357
33.396421 1329939701.339333 419 554 530 372 371 354
33.437853 1329939701.347400 419 551 529 372 371 354
33.437853 1329939701.356102 419 549 529 373 375 352
33.479223 1329939701.364461 418 549 529 374 378 351
33.479223 1329939701.372394 418 550 531 372 378 350
33.521167 1329939701.380876 419 549 532 371 376 350
33.521167 1329939701.389267 418 547 531 369 375 349
33.563059 1329939701.397425 418 546 530 369 373 348
33.563059 1329939701.405847 418 547 530 366 374 347
33.602052 1329939701.413985 417 546 529 366 375 345
33.602052 1329939701.422390 416 544 530 366 376 347
33.650115 1329939701.438310 418 544 530 368 377 347
33.650115 1329939701.439405 418 543 530 370 376 348
33.680908 1329939701.446957 417 541 531 369 375 347
33.680908 1329939701.455598 416 540 529 369 374 346
33.723239 1329939701.463941 417 541 529 367 372 345
33.723239 1329939701.471905 417 539 528 367 371 345
33.762447 1329939701.480320 417 539 528 366 373 343
33.762447 1329939701.500146 417 540 528 366 374 343
33.804146 1329939701.505135 416 538 528 369 376 341
33.804146 1329939701.513645 415 536 528 370 376 340
33.837199 1329939701.521861 416 536 529 369 375 339
33.837199 1329939701.530395 415 536 529 367 375 339
33.879116 1329939701.538449 415 533 529 365 372 340
33.879116 1329939701.546959 415 535 530 366 374 340
33.920363 1329939701.555360 416 534 530 368 374 338
33.920363 1329939701.563929 413 529 530 371 372 336
33.962139 1329939701.571913 413 527 529 371 372 336
33.962139 1329939701.580102 414 528 530 368 371 335
34.003823 1329939701.588483 414 527 530 369 369 335
34.003823 1329939701.596913 413 525 529 369 365 335
34.046720 1329939701.606599 414 525 528 370 365 334
34.046720 1329939701.613541 414 522 527 372 367 333
34.082330 1329939701.621874 414 520 526 369 368 331
34.082330 1329939701.630264 414 519 524 366 366 332
34.120125 1329939701.638388 412 518 524 365 366 335
34.120125 1329939701.646870 412 516 526 368 369 336
34.168656 1329939701.660045 413 514 528 369 370 335
34.168656 1329939701.672192 411 513 528 371 370 333
34.203545 1329939701.680121 411 512 527 371 370 332
34.203545 1329939701.688506 411 510 527 367 368 331
34.239605 1329939701.696626 411 507 524 366 364 331
34.239605 1329939701.705096 412 507 522 365 361 329
34.278272 1329939701.713375 413 507 521 362 363 330
34.278272 1329939701.728511 414 505 519 362 364 327
34.320119 1329939701.738995 412 502 518 362 367 327
34.320119 1329939701.750250 413 502 518 364 372 326
34.361887 1329939701.754832 414 503 520 369 376 326
34.361887 1329939701.763571 415 500 522 372 373 326
34.403530 1329939701.771579 414 499 522 373 371 326
34.403530 1329939701.780097 416 499 523 371 369 325
34.444978 1329939701.797398 417 497 522 370 366 326
34.444978 1329939701.804959 414 494 519 370 363 325
34.478263 1329939701.813294 415 494 519 367 362 324
34.478263 1329939701.821657 415 492 518 367 365 323
34.520007 1329939701.829789 415 486 517 368 369 321
34.520007 1329939701.839048 414 485 517 368 369 320
34.561405 1329939701.849172 416 485 517 366 373 319
34.561405 1329939701.854900 415 482 517 365 372 320
34.603156 1329939701.863101 417 479 516 366 369 320
34.603156 1329939701.871491 419 478 514 363 370 320
34.644786 1329939701.879812 417 480 513 357 369 321
34.644786 1329939701.888311 419 479 515 350 368 321
34.678273 1329939701.896780 416 472 516 351 368 318
34.678273 1329939701.904899 417 467 517 356 371 317
34.727945 1329939701.913094 418 468 518 357 373 318
34.727945 1329939701.921681 417 466 518 357 376 322
34.761013 1329939701.929754 417 460 519 357 378 326
34.761013 1329939701.938197 420 458 520 358 378 329
34.803281 1329939701.946644 422 457 521 360 375 331
34.803281 1329939701.959703 420 456 520 362 371 333
34.844662 1329939701.972363 421 455 520 364 373 333
34.844662 1329939701.979685 423 455 521 365 373 332
34.877366 1329939701.988120 422 455 519 365 370 331
34.877366 1329939701.996633 422 452 518 363 370 330
34.926526 1329939702.004975 423 448 519 364 375 329
34.926526 1329939702.020808 424 446 519 365 376 329
34.959866 1329939702.021548 423 446 519 362 372 331
34.959866 1329939702.029839 423 445 520 361 372 334
35.003508 1329939702.038088 422 443 520 363 371 336
35.003508 1329939702.048250 422 442 519 364 370 337
35.044857 1329939702.054859 422 444 518 362 369 339
35.044857 1329939702.063314 423 443 517 362 373 338
35.078255 1329939702.080462 422 438 518 366 378 340
35.078255 1329939702.089154 423 438 519 374 380 338
35.119843 1329939702.096368 422 437 519 381 382 334
35.119843 1329939702.104958 423 437 519 382 382 337
35.161849 1329939702.113083 425 437 519 379 382 339
35.161849 1329939702.131504 427 435 519 378 383 337
35.203236 1329939702.142977 425 431 519 381 383 340
35.203236 1329939702.146411 425 430 521 382 381 342
35.244078 1329939702.154555 426 431 522 380 381 348
35.244078 1329939702.163233 428 428 523 380 382 352
35.278185 1329939702.171480 428 426 524 379 384 355
35.278185 1329939702.179667 428 426 523 377 383 357
35.320052 1329939702.191482 428 427 524 374 379 357
35.320052 1329939702.203325 429 424 523 375 377 360
35.369317 1329939702.204579 429 423 523 375 375 362
35.369317 1329939702.212982 427 423 521 371 377 363
35.403154 1329939702.221548 428 422 521 369 375 366
35.403154 1329939702.229684 429 422 520 369 374 367
35.438005 1329939702.237753 428 423 520 370 375 367
35.438005 1329939702.254613 429 421 520 368 375 370
35.477669 1329939702.265925 428 422 519 368 375 372
35.477669 1329939702.271396 429 422 520 367 376 373
35.519604 1329939702.279875 428 423 522 367 379 376
35.519604 1329939702.287958 428 421 522 370 378 378
35.567515 1329939702.296179 428 421 523 370 375 380
35.567515 1329939702.304713 428 420 523 369 377 383
35.602712 1329939702.315127 428 419 524 366 377 385
35.602712 1329939702.321349 427 420 524 364 376 389
35.644339 1329939702.329811 428 420 525 364 374 393
35.644339 1329939702.337838 426 422 526 363 375 397
35.677548 1329939702.346049 427 422 527 362 372 397
35.677548 1329939702.364016 426 423 527 362 368 400
35.719288 1329939702.384425 426 425 526 363 367 400
35.719288 1329939702.394412 425 427 524 362 367 401
35.771504 1329939702.396055 423 430 522 361 366 401
35.771504 1329939702.404563 422 431 523 361 370 403
35.802137 1329939702.412702 423 434 522 362 373 405
35.802137 1329939702.421041 423 436 523 363 374 406
35.843897 1329939702.433460 423 437 523 368 373 407
35.843897 1329939702.437744 423 439 524 374 375 411
35.877376 1329939702.446121 423 443 524 376 376 413
35.877376 1329939702.454483 424 443 525 378 376 414
35.918522 1329939702.462667 424 447 524 378 374 414
35.918522 1329939702.471595 425 450 524 378 372 414
35.960261 1329939702.479296 424 449 524 379 371 413
35.960261 1329939702.487867 425 450 523 379 369 415
36.001783 1329939702.496000 424 453 521 380 370 416
36.001783 1329939702.504146 422 456 518 380 372 417
36.043568 1329939702.512645 423 457 518 383 377 417
36.043568 1329939702.520918 426 459 519 383 382 420
36.078271 1329939702.530639 425 460 520 383 383 422
36.078271 1329939702.544162 423 462 520 380 383 424
36.118327 1329939702.545888 423 466 521 376 382 424
36.118327 1329939702.554171 423 468 522 374 379 426
36.160139 1329939702.562608 423 468 521 377 374 426
36.160139 1329939702.572683 422 471 518 378 371 427
36.198621 1329939702.579206 421 475 517 376 369 427
36.198621 1329939702.598185 421 476 518 378 370 427
36.243301 1329939702.627310 420 477 518 384 375 427
36.243301 1329939702.638959 418 480 518 388 378 430
36.284931 1329939702.645760 416 486 518 390 379 429
36.284931 1329939702.654218 417 485 520 392 381 427
36.318297 1329939702.662302 418 484 521 394 382 430
36.318297 1329939702.670876 419 487 521 394 378 432
36.359390 1329939702.684002 419 492 521 392 378 432
36.359390 1329939702.693503 417 494 522 390 381 431
36.401282 1329939702.695543 418 496 524 388 382 431
36.401282 1329939702.703978 418 503 525 382 382 429
36.442655 1329939702.713958 417 506 525 378 380 427
36.442655 1329939702.720686 416 505 525 376 378 428
36.493310 1329939702.729668 418 505 525 378 376 428
36.493310 1329939702.739552 419 508 525 376 373 428
36.523593 1329939702.745698 416 515 524 373 366 426
36.523593 1329939702.753834 416 515 524 375 365 425
36.559721 1329939702.762277 418 517 523 379 367 426
36.559721 1329939702.770818 417 522 523 381 368 425
36.601134 1329939702.779083 417 525 522 382 367 424
36.601134 1329939702.792111 419 526 522 384 366 422
36.642705 1329939702.795460 419 531 521 388 364 419
36.642705 1329939702.803866 416 537 518 390 365 417
36.684412 1329939702.812336 414 539 515 391 364 414
36.684412 1329939702.820727 414 537 513 393 364 410
36.717767 1329939702.829487 415 533 513 395 367 407
36.717767 1329939702.837333 415 536 513 398 370 404
36.759506 1329939702.845568 414 540 514 399 375 402
36.759506 1329939702.853763 414 541 516 398 380 403
36.801488 1329939702.862142 415 541 519 397 383 404
36.801488 1329939702.870724 417 542 520 394 383 401
36.843819 1329939702.878953 416 543 520 389 382 398
36.843819 1329939702.887322 412 545 520 381 381 396
36.895786 1329939702.897282 411 545 522 376 381 395
36.895786 1329939702.904107 411 547 522 377 380 395
36.917713 1329939702.912485 413 549 522 378 379 397
36.917713 1329939702.920938 413 551 521 377 378 395
36.959524 1329939702.929244 414 549 520 371 376 393
36.959524 1329939702.937458 415 549 519 368 376 392
37.014439 1329939702.945853 416 550 519 369 376 392
37.014439 1329939702.954065 415 553 520 370 377 392
37.042896 1329939702.964128 415 555 519 367 374 392
37.042896 1329939702.970957 415 556 519 367 374 393
37.084273 1329939702.984681 416 557 521 371 377 393
37.084273 1329939702.987409 417 559 521 374 378 390
37.117543 1329939703.000418 416 559 520 374 375 387
37.117543 1329939703.011003 414 558 519 374 374 384
37.167633 1329939703.012444 415 559 519 375 374 381
37.167633 1329939703.020732 414 559 519 379 374 378
37.201013 1329939703.029286 413 558 518 382 376 376
37.201013 1329939703.037448 413 560 518 381 377 375
37.242569 1329939703.047238 415 560 517 380 379 374
37.242569 1329939703.054211 414 558 518 377 382 372
37.284018 1329939703.062713 414 559 519 375 385 371
37.284018 1329939703.070966 415 562 521 372 387 370
37.317496 1329939703.079291 413 561 522 372 385 367
37.317496 1329939703.087358 414 560 525 370 385 366
37.359768 1329939703.095687 414 565 526 370 383 365
37.359768 1329939703.113315 413 569 525 370 377 360
37.400532 1329939703.120730 411 569 525 370 375 358
37.400532 1329939703.129202 412 566 524 369 375 354
37.442206 1329939703.137323 412 565 525 372 377 352
37.442206 1329939703.145786 412 565 525 374 377 348
37.484519 1329939703.154073 411 564 525 376 377 345
37.484519 1329939703.171316 411 563 525 376 374 343
37.517283 1329939703.179195 412 561 525 379 374 341
37.517283 1329939703.187421 412 558 525 378 373 337
37.558780 1329939703.195730 412 555 525 377 373 334
37.558780 1329939703.203988 413 553 525 375 373 331
37.605289 1329939703.214734 412 552 525 374 370 328
37.605289 1329939703.225404 413 549 525 373 367 327
37.642135 1329939703.230052 415 547 524 372 366 325
37.642135 1329939703.237458 415 546 523 373 364 322
37.683567 1329939703.245987 415 545 520 370 364 321
37.683567 1329939703.254054 416 544 520 368 367 319
37.725238 1329939703.270245 416 542 519 370 367 317
37.725238 1329939703.271373 416 538 518 371 366 315
37.760160 1329939703.283386 418 536 517 372 367 314
37.760160 1329939703.287245 418 533 516 374 368 313
37.800119 1329939703.295528 417 528 514 373 368 313
37.800119 1329939703.303987 417 525 514 373 371 312
37.841843 1329939703.311974 418 524 515 378 374 311
37.841843 1329939703.320294 419 521 515 382 374 311
37.883187 1329939703.332628 419 519 515 380 374 309
37.883187 1329939703.353611 420 517 516 374 376 307
37.924906 1329939703.363661 420 512 516 369 377 305
37.924906 1329939703.370349 418 507 517 369 377 306
37.958181 1329939703.378806 418 507 517 372 376 306
37.958181 1329939703.387162 418 503 517 372 375 305
37.999651 1329939703.395238 418 497 518 371 376 305
37.999651 1329939703.408055 419 495 519 366 376 305
38.041504 1329939703.411884 420 493 519 363 376 303
38.041504 1329939703.420213 420 489 519 361 375 305
38.083063 1329939703.428760 421 486 519 360 375 308
38.083063 1329939703.437057 421 483 520 362 375 310
38.124618 1329939703.445152 422 479 521 364 375 310
38.124618 1329939703.453581 422 478 520 362 375 312
38.157994 1329939703.461836 422 475 521 362 374 312
38.157994 1329939703.470200 422 473 522 363 372 314
38.199833 1329939703.478628 423 473 522 362 370 316
38.199833 1329939703.487049 422 470 522 362 370 316
38.242750 1329939703.495100 421 464 521 361 370 318
38.242750 1329939703.504457 421 462 521 360 370 320
38.282799 1329939703.511631 422 464 524 358 370 321
38.282799 1329939703.519891 421 459 523 358 372 320
38.324483 1329939703.528286 420 454 522 359 370 321
38.324483 1329939703.536805 425 456 523 359 370 322
38.364231 1329939703.544891 425 457 523 359 368 324
38.364231 1329939703.553194 420 449 522 362 365 322
38.399330 1329939703.561570 419 445 520 367 364 321
38.399330 1329939703.569947 422 447 519 370 366 319
38.441280 1329939703.578235 420 446 517 374 366 318
38.441280 1329939703.586775 420 441 515 376 366 317
38.482942 1329939703.595028 424 438 515 376 371 320
38.482942 1329939703.602964 425 438 515 374 371 325
38.516458 1329939703.611439 424 435 515 375 368 330
38.516458 1329939703.619966 430 432 516 374 372 334
38.557889 1329939703.628251 434 430 516 373 374 340
38.557889 1329939703.636658 430 429 514 372 370 345
38.599825 1329939703.644834 429 427 513 369 363 351
38.599825 1329939703.653106 430 427 512 364 364 358
38.645897 1329939703.671893 428 427 512 358 368 362
38.645897 1329939703.677985 426 422 513 352 370 365
38.682672 1329939703.686563 428 417 513 351 371 367
38.682672 1329939703.694784 427 419 512 351 373 372
38.716218 1329939703.702911 423 425 512 344 373 373
38.716218 1329939703.711423 422 425 514 343 372 374
38.757698 1329939703.731690 422 422 514 345 377 376
38.757698 1329939703.736542 424 420 516 349 382 377
38.799486 1329939703.744787 424 421 518 351 384 380
38.799486 1329939703.753096 423 426 519 351 384 381
38.842792 1329939703.761282 424 427 521 351 383 385
38.842792 1329939703.769763 426 424 522 355 381 389
38.882583 1329939703.777772 425 425 520 357 378 393
38.882583 1329939703.786396 423 429 520 356 375 397
38.924139 1329939703.794659 421 432 519 356 375 400
38.924139 1329939703.802955 422 431 518 360 374 403
38.957692 1329939703.811399 421 431 517 367 376 405
38.957692 1329939703.819617 421 433 516 369 381 406
38.999393 1329939703.827795 420 434 518 370 386 408
38.999393 1329939703.839607 422 437 520 370 391 412
39.040385 1329939703.844739 422 442 521 370 394 410
39.040385 1329939703.852949 422 444 523 369 397 411
39.085545 1329939703.861308 425 447 526 372 399 413
39.085545 1329939703.869497 426 452 527 374 399 414
39.118455 1329939703.877905 426 457 528 375 397 414
39.118455 1329939703.896245 425 457 528 375 401 416
39.157426 1329939703.903151 427 459 529 379 402 419
39.157426 1329939703.911338 429 465 529 378 401 421
39.198637 1329939703.919600 429 471 530 377 402 423
39.198637 1329939703.927916 431 473 530 378 402 426
39.240116 1329939703.936163 434 476 530 382 403 426
39.240116 1329939703.944535 436 482 531 385 406 424
39.282099 1329939703.953009 437 486 531 384 411 424
39.282099 1329939703.961215 437 487 533 384 413 422
39.322895 1329939703.969665 441 489 534 387 411 418
39.322895 1329939703.978023 441 498 534 392 409 415
39.371503 1329939703.986131 442 502 533 393 412 414
39.371503 1329939703.994479 438 496 531 394 418 415
39.398581 1329939704.004637 439 492 532 396 430 413
39.398581 1329939704.011328 440 497 535 395 439 410
39.443377 1329939704.019548 440 504 539 395 445 410
39.443377 1329939704.028105 434 505 539 398 443 409
39.482183 1329939704.036133 432 499 540 401 434 406
39.482183 1329939704.044313 431 503 544 400 435 406
39.523823 1329939704.067370 435 512 548 397 442 406
39.523823 1329939704.088413 434 511 550 403 443 403
39.565397 1329939704.098216 429 503 549 407 436 395
39.565397 1329939704.102762 427 496 550 400 436 391
39.598655 1329939704.111087 429 504 555 385 438 395
39.598655 1329939704.120247 431 514 557 381 434 396
39.640563 1329939704.132544 430 519 557 390 425 390
39.640563 1329939704.142357 429 510 557 401 424 375
39.682210 1329939704.144361 426 502 558 400 436 366
39.682210 1329939704.152859 426 500 559 388 445 372
39.724316 1329939704.161086 424 505 561 378 441 384
39.724316 1329939704.169360 429 514 564 374 436 383
39.758103 1329939704.177786 428 504 567 370 445 374
39.758103 1329939704.186251 424 493 569 360 459 375
39.800975 1329939704.194399 424 501 572 356 461 385
39.800975 1329939704.202721 428 512 575 360 457 392
39.841839 1329939704.210993 428 513 579 370 455 391
39.841839 1329939704.219230 427 500 583 374 462 382
39.883392 1329939704.227773 431 498 587 372 465 377
39.883392 1329939704.236091 434 508 589 372 457 382
39.924845 1329939704.245363 433 513 592 374 450 385
39.924845 1329939704.252732 435 508 595 379 451 379
39.964467 1329939704.261153 442 502 597 379 457 369
39.964467 1329939704.269122 448 498 598 374 453 366
40.001767 1329939704.285878 451 499 600 368 442 371
40.001767 1329939704.286742 450 502 600 372 428 379
40.040552 1329939704.298307 451 503 601 378 427 378
40.040552 1329939704.302951 455 500 601 376 434 373
40.083137 1329939704.310858 461 495 603 371 444 365
40.083137 1329939704.319032 465 496 605 367 439 363
40.124822 1329939704.327684 463 500 606 369 430 367
40.124822 1329939704.335866 461 502 607 372 425 371
40.158630 1329939704.346725 464 499 607 371 425 373
40.158630 1329939704.352598 469 496 608 365 424 371
40.199725 1329939704.360852 472 497 608 362 418 364
40.199725 1329939704.368970 472 500 607 366 413 359
40.253751 1329939704.377549 471 503 605 371 408 358
40.253751 1329939704.386318 471 503 603 374 407 359
40.283670 1329939704.396116 471 498 602 373 409 363
40.283670 1329939704.410494 472 496 603 369 415 367
40.317307 1329939704.411062 473 498 604 368 421 368
40.317307 1329939704.418829 476 501 607 366 426 368
40.371122 1329939704.427404 478 502 608 368 422 367
40.371122 1329939704.435838 477 502 609 373 415 366
40.400105 1329939704.443975 479 501 608 375 409 364
40.400105 1329939704.452567 480 502 609 376 406 362
40.441789 1329939704.460599 481 501 610 374 404 360
40.441789 1329939704.468807 481 499 610 375 400 359
40.483765 1329939704.477480 482 498 609 375 397 359
40.483765 1329939704.485790 483 499 611 375 399 361
40.523689 1329939704.495329 485 500 612 376 399 362
40.523689 1329939704.502436 486 498 611 378 397 364
40.558390 1329939704.510849 488 496 608 377 391 365
40.558390 1329939704.518761 490 497 607 375 390 364
40.599387 1329939704.527451 491 497 607 372 390 363
40.599387 1329939704.535689 492 498 607 369 388 364
40.641472 1329939704.548130 491 498 605 371 383 364
40.641472 1329939704.552232 492 499 604 371 381 365
40.689896 1329939704.560543 490 500 603 375 382 367
40.689896 1329939704.568767 491 498 602 380 385 368
40.724651 1329939704.577551 493 497 601 380 387 368
40.724651 1329939704.585585 494 497 600 378 387 369
40.762477 1329939704.595986 493 498 601 379 389 367
40.762477 1329939704.602184 493 499 602 378 393 367
40.811431 1329939704.610574 496 498 603 377 394 366
40.811431 1329939704.618676 497 499 603 374 391 367
40.844034 1329939704.627450 498 499 603 371 391 368
40.844034 1329939704.635671 496 500 604 373 393 370
40.886273 1329939704.643849 498 498 604 376 392 370
40.886273 1329939704.652528 499 497 604 375 390 370
40.918588 1329939704.660420 499 496 604 373 390 372
40.918588 1329939704.668578 500 499 606 373 391 373
40.958067 1329939704.677406 501 500 607 377 391 371
40.958067 1329939704.685434 500 498 607 378 390 373
40.999470 1329939704.693700 499 497 607 378 388 373
40.999470 1329939704.702292 500 497 607 375 385 373
41.041251 1329939704.710374 500 499 608 376 386 373
41.041251 1329939704.718671 501 498 609 374 387 371
41.082467 1329939704.727203 501 498 609 370 386 372
41.082467 1329939704.735596 502 500 609 368 381 372
41.122011 1329939704.743589 501 501 608 371 379 371
41.122011 1329939704.754669 501 499 607 372 379 372
41.159903 1329939704.760264 501 499 606 373 380 371
41.159903 1329939704.768547 501 499 607 370 382 372
41.198462 1329939704.776979 502 501 608 372 381 371
41.198462 1329939704.785354 503 500 607 374 377 370
41.245198 1329939704.793805 503 499 606 375 375 370
41.245198 1329939704.812947 503 499 605 377 375 370
41.294457 1329939704.818753 502 499 606 377 379 370
41.294457 1329939704.827011 503 499 606 374 379 369
41.323910 1329939704.835435 503 498 605 374 377 370
41.323910 1329939704.843907 503 498 605 375 375 370
41.357771 1329939704.852083 503 499 604 376 376 372
41.357771 1329939704.860593 504 499 604 374 376 372
41.410727 1329939704.870389 503 499 604 372 377 373
41.410727 1329939704.876920 504 499 605 372 379 371
41.440722 1329939704.886311 504 499 605 374 379 371
41.440722 1329939704.896347 503 499 604 375 379 371
41.479358 1329939704.901970 504 498 604 375 380 370
41.479358 1329939704.910674 504 499 605 374 381 371
41.525945 1329939704.921505 504 500 605 373 380 370
41.525945 1329939704.926850 504 500 605 373 379 370
41.557846 1329939704.935503 505 499 605 373 378 371
41.557846 1329939704.943839 505 499 605 374 379 373
41.606819 1329939704.952014 504 499 605 376 379 371
41.606819 1329939704.960305 504 499 605 374 381 372
41.640878 1329939704.972828 505 499 606 375 379 371
41.640878 1329939704.993933 505 499 606 375 378 372
41.682425 1329939705.004075 505 499 606 376 377 370
41.682425 1329939705.010405 504 499 606 377 375 370
41.723904 1329939705.018732 504 498 607 377 376 371
41.723904 1329939705.027164 504 499 606 378 376 370
41.761248 1329939705.035182 504 498 605 378 375 371
41.761248 1329939705.066197 504 498 605 376 374 372
41.798778 1329939705.087446 503 498 604 375 376 372
41.798778 1329939705.097423 503 497 603 371 376 372
41.841038 1329939705.104176 504 497 603 369 378 373
41.841038 1329939705.114727 504 498 603 369 379 373
41.885208 1329939705.118842 505 499 603 369 380 372
41.885208 1329939705.127130 505 498 604 369 381 373
41.928155 1329939705.140915 505 499 604 370 381 372
41.928155 1329939705.143906 506 500 604 372 380 373
41.957357 1329939705.156625 505 501 603 373 382 373
41.957357 1329939705.160908 506 501 605 373 382 372
41.998278 1329939705.168920 506 499 605 374 382 372
41.998278 1329939705.177311 506 499 605 375 381 371
42.040261 1329939705.185823 507 499 605 374 382 371
42.040261 1329939705.194067 506 501 606 373 381 369
42.081533 1329939705.202535 507 501 607 374 382 369
42.081533 1329939705.210860 507 501 607 375 382 369
42.123512 1329939705.218844 507 501 607 375 381 368
42.123512 1329939705.227355 506 499 607 375 380 369
42.164812 1329939705.235874 506 500 606 376 377 368
42.164812 1329939705.245801 507 500 606 376 377 369
42.197739 1329939705.256511 506 500 606 376 378 369
42.197739 1329939705.261020 506 499 606 375 379 369
42.239633 1329939705.268919 505 498 606 375 379 368
42.239633 1329939705.277470 506 499 606 375 379 369
42.281806 1329939705.286088 506 499 607 374 377 369
42.281806 1329939705.294427 506 499 605 375 375 369
42.323278 1329939705.302734 506 498 605 374 373 369
42.323278 1329939705.311104 506 499 604 375 377 370
42.364644 1329939705.319052 506 498 604 374 379 370
42.364644 1329939705.327590 507 497 604 374 380 369
42.397765 1329939705.336090 507 499 605 376 380 370
42.397765 1329939705.344376 507 500 605 375 378 370
42.439874 1329939705.352559 507 499 605 375 376 370
42.439874 1329939705.361192 507 498 605 373 376 370
42.481270 1329939705.371196 507 498 606 374 378 371
42.481270 1329939705.377816 506 499 605 373 379 370
42.522599 1329939705.386221 506 499 605 374 379 370
42.522599 1329939705.394738 506 498 605 373 377 370
42.564197 1329939705.402826 506 498 606 371 377 372
42.564197 1329939705.411407 505 500 605 372 378 371
42.597377 1329939705.419722 504 501 605 372 378 369
42.597377 1329939705.428412 503 501 606 372 379 368
42.639656 1329939705.436821 500 501 607 374 380 368
42.639656 1329939705.448019 499 500 608 373 381 368
42.691089 1329939705.453557 496 501 610 373 381 368
42.691089 1329939705.462376 495 502 613 375 381 366
42.722098 1329939705.470164 493 501 618 378 381 362
42.722098 1329939705.478487 491 501 622 381 381 361
42.764236 1329939705.496485 489 504 627 381 376 360
42.764236 1329939705.503681 486 507 632 381 371 359
42.797528 1329939705.511383 484 507 638 384 363 359
42.797528 1329939705.520051 483 505 643 390 354 358
42.842069 1329939705.528472 485 501 648 391 345 357
42.842069 1329939705.536434 486 498 651 388 333 354
42.886641 1329939705.544897 484 500 653 383 321 352
42.886641 1329939705.553651 483 499 655 380 309 353
42.922538 1329939705.561788 480 497 656 380 297 355
42.922538 1329939705.570745 481 495 658 382 286 358
42.969777 1329939705.578750 483 495 659 382 276 361
42.969777 1329939705.586833 485 492 658 379 262 359
42.997381 1329939705.595175 486 488 656 376 247 358
42.997381 1329939705.604548 488 488 651 375 231 357
43.039089 1329939705.611749 485 492 644 374 218 355
43.039089 1329939705.620431 483 494 636 375 209 354
43.080119 1329939705.628616 483 491 630 375 208 353
43.080119 1329939705.636520 484 490 624 377 208 355
43.121659 1329939705.645252 488 491 618 377 206 356
43.121659 1329939705.660872 486 490 612 378 200 357
43.157670 1329939705.683967 487 489 607 382 194 359
43.157670 1329939705.696203 484 491 598 390 195 361
43.209163 1329939705.710722 479 493 589 395 198 359
43.209163 1329939705.724653 476 496 580 390 201 357
43.245213 1329939705.739121 474 493 570 381 200 356
43.245213 1329939705.745141 465 487 559 373 202 355
43.279235 1329939705.753308 460 484 548 369 206 358
43.279235 1329939705.762023 453 485 537 369 213 359
43.332083 1329939705.770063 443 487 528 369 226 359
43.332083 1329939705.778209 437 487 519 370 241 359
43.361132 1329939705.787015 438 483 513 371 255 361
43.361132 1329939705.795771 440 479 510 379 278 357
43.402756 1329939705.810574 439 479 507 387 308 357
43.402756 1329939705.814010 434 476 508 395 336 357
43.449995 1329939705.820306 440 467 512 403 351 362
43.449995 1329939705.828538 443 463 516 410 352 372
43.477500 1329939705.837405 449 461 518 412 352 380
43.477500 1329939705.845602 455 461 518 407 353 386
43.519501 1329939705.853567 457 459 520 402 352 396
43.519501 1329939705.862209 452 454 520 403 350 402
43.560975 1329939705.870530 447 453 519 400 352 411
43.560975 1329939705.878499 443 456 519 394 352 418
43.602889 1329939705.887075 436 449 518 386 344 425
43.602889 1329939705.895613 427 439 516 382 337 430
43.636228 1329939705.903536 425 442 513 376 338 434
43.636228 1329939705.920289 422 452 510 371 343 440
43.677554 1329939705.923201 423 456 509 368 347 447
43.677554 1329939705.928471 427 465 510 368 351 458
43.719291 1329939705.937087 430 480 512 369 352 467
43.719291 1329939705.945558 436 492 514 374 354 473
43.760932 1329939705.953866 439 496 515 387 355 480
43.760932 1329939705.962195 438 506 514 406 356 481
43.802105 1329939705.970199 437 522 512 413 358 475
43.802105 1329939705.978539 439 533 515 411 360 468
43.843959 1329939705.987173 439 543 520 415 369 463
43.843959 1329939705.995773 436 556 525 421 380 453
43.877663 1329939706.003578 432 564 529 427 393 443
43.877663 1329939706.012209 430 564 532 429 402 433
43.918959 1329939706.020012 434 563 536 431 400 427
43.918959 1329939706.028386 435 568 538 430 393 422
43.960635 1329939706.036758 430 573 536 427 378 417
43.960635 1329939706.045312 426 571 534 423 365 413
44.002358 1329939706.053131 424 573 532 422 356 410
44.002358 1329939706.068758 420 576 527 420 346 407
44.044162 1329939706.071659 416 583 521 416 344 402
44.044162 1329939706.088027 413 588 517 412 349 398
44.078336 1329939706.100849 408 594 516 410 356 392
44.078336 1329939706.115221 400 598 514 405 359 384
44.118697 1329939706.119809 400 603 514 394 362 379
44.118697 1329939706.128138 401 603 517 393 365 371
44.160583 1329939706.136194 397 604 518 394 365 367
44.160583 1329939706.144738 398 609 519 391 363 362
44.202283 1329939706.153163 402 611 521 384 363 352
44.202283 1329939706.161453 404 606 524 378 361 344
44.244000 1329939706.169570 404 603 522 373 354 334
44.244000 1329939706.178165 408 601 520 365 349 327
44.277226 1329939706.197047 412 597 519 357 349 320
44.277226 1329939706.202938 414 590 518 349 348 314
44.318754 1329939706.211455 417 585 517 347 350 309
44.318754 1329939706.220013 422 580 516 343 351 305
44.360134 1329939706.228370 423 574 516 343 352 303
44.360134 1329939706.236381 425 566 514 340 353 301
44.401766 1329939706.251552 428 560 513 338 352 298
44.401766 1329939706.284367 431 554 513 333 356 293
44.443419 1329939706.298186 432 547 511 328 358 288
44.443419 1329939706.303371 433 542 508 322 355 283
44.476800 1329939706.311241 440 535 508 318 360 281
44.476800 1329939706.319734 436 529 507 315 366 278
44.519097 1329939706.327801 433 522 505 312 363 276
44.519097 1329939706.338385 431 521 505 309 364 271
44.559994 1329939706.351367 433 514 505 310 366 262
44.559994 1329939706.365722 435 497 506 317 371 262
44.603844 1329939706.379737 436 491 506 320 374 263
44.603844 1329939706.386264 437 492 509 318 385 263
44.643258 1329939706.393954 436 488 512 314 393 262
44.643258 1329939706.402563 440 480 517 316 395 265
44.676823 1329939706.411386 444 474 522 324 392 268
44.676823 1329939706.419537 445 470 523 330 386 270
44.718285 1329939706.427618 445 460 524 329 379 276
44.718285 1329939706.436234 450 458 524 330 377 281
44.760028 1329939706.443931 447 453 520 339 373 281
44.760028 1329939706.452389 445 448 517 343 374 287
44.801500 1329939706.462884 446 446 517 342 373 295
44.801500 1329939706.469409 444 442 512 340 369 302
44.836174 1329939706.477826 442 434 507 335 364 309
44.836174 1329939706.486257 440 429 507 335 372 315
44.876655 1329939706.494109 433 423 507 349 384 315
44.876655 1329939706.502354 429 418 505 356 391 318
44.918361 1329939706.518884 426 419 507 354 398 321
44.918361 1329939706.521714 425 418 514 352 407 325
44.959924 1329939706.527604 424 407 518 351 411 326
44.959924 1329939706.535940 424 399 519 355 408 330
45.007118 1329939706.544096 425 402 521 355 402 335
45.007118 1329939706.552315 422 401 524 352 399 340
45.043185 1329939706.561083 422 393 526 354 396 349
45.043185 1329939706.570739 421 390 527 357 392 356
45.076708 1329939706.593923 420 385 527 356 391 363
45.076708 1329939706.596777 418 384 527 359 390 370
45.120306 1329939706.602758 416 384 528 361 389 377
45.120306 1329939706.610941 416 377 528 368 387 385
45.159857 1329939706.619550 417 375 530 372 387 393
45.159857 1329939706.627502 420 379 530 372 385 400
45.202624 1329939706.637882 419 379 529 371 382 406
45.202624 1329939706.644252 422 381 530 374 377 413
45.245447 1329939706.652549 426 391 530 374 376 419
45.245447 1329939706.661042 425 399 527 376 376 425
45.276261 1329939706.669225 427 400 525 383 377 430
45.276261 1329939706.677370 431 406 524 390 379 438
45.318173 1329939706.687170 431 416 526 391 383 445
45.318173 1329939706.694412 430 420 526 393 385 449
45.359214 1329939706.702467 435 426 528 395 387 454
45.359214 1329939706.710875 439 432 530 395 386 460
45.401204 1329939706.718957 433 439 529 393 379 464
45.401204 1329939706.727216 432 449 527 389 372 467
45.444702 1329939706.743805 432 457 527 391 372 468
45.444702 1329939706.755962 430 460 529 399 377 470
45.484516 1329939706.760803 431 469 529 406 383 472
45.484516 1329939706.769313 430 484 529 405 381 467
45.517351 1329939706.777509 431 492 530 406 375 463
45.517351 1329939706.790084 435 492 530 415 371 457
45.558994 1329939706.794069 439 487 529 427 373 452
45.558994 1329939706.817617 438 491 527 432 377 452
45.603550 1329939706.820436 435 501 527 427 380 450
45.603550 1329939706.835460 434 506 529 426 381 447
45.648696 1329939706.849920 436 506 530 427 382 447
45.648696 1329939706.852481 437 511 530 426 378 451
45.683797 1329939706.860619 434 518 529 419 371 451
45.683797 1329939706.871545 431 522 528 411 370 449
45.718862 1329939706.877744 434 527 528 406 373 449
45.718862 1329939706.898495 435 533 528 403 373 448
45.759269 1329939706.911210 434 540 526 397 369 447
45.759269 1329939706.919324 432 544 522 391 364 443
45.800430 1329939706.927219 430 546 520 392 366 441
45.800430 1329939706.937393 431 551 521 399 372 439
45.843932 1329939706.944352 427 556 519 400 375 435
45.843932 1329939706.952472 422 558 517 398 374 429
45.883780 1329939706.960965 422 557 517 398 378 427
45.883780 1329939706.969018 423 561 519 402 384 425
45.917277 1329939706.977556 420 565 519 403 384 421
45.917277 1329939706.985923 416 570 518 396 384 417
45.959349 1329939706.994920 415 573 520 387 389 412
45.959349 1329939707.002787 414 573 524 387 393 407
46.000237 1329939707.019903 411 578 526 386 390 402
46.000237 1329939707.027569 411 583 526 383 387 398
46.042160 1329939707.035913 408 582 527 381 384 396
46.042160 1329939707.044724 406 578 527 382 380 394
46.087469 1329939707.052979 403 584 527 382 377 393
46.087469 1329939707.061250 404 593 530 380 376 391
46.117162 1329939707.075819 407 590 532 378 373 387
46.117162 1329939707.078738 408 589 530 370 367 381
46.158284 1329939707.085790 408 590 530 359 366 372
46.158284 1329939707.094555 410 592 530 347 369 365
