imu_t vicon_t accel_x accel_y accel_z gyro_x gyro_y gyro_z
0.510817 1329949370.831001 506 503 605 374 377 369
0.527514 1329949370.847870 506 503 605 374 377 370
0.600463 1329949370.864510 506 503 605 375 377 370
0.600463 1329949370.872646 506 503 605 374 377 370
0.600463 1329949370.882967 506 503 605 375 376 371
0.600463 1329949370.889229 506 503 605 374 375 370
0.632207 1329949370.908624 506 503 605 375 376 370
0.632207 1329949370.922513 506 503 605 374 376 370
0.632207 1329949370.924763 506 503 605 375 376 370
0.632207 1329949370.930766 506 503 605 374 376 370
0.632207 1329949370.939075 506 503 605 374 377 370
0.632207 1329949370.947474 506 503 605 374 376 370
0.695983 1329949370.955874 506 503 606 375 375 371
0.695983 1329949370.964598 506 503 605 375 376 370
0.695983 1329949370.972563 506 503 605 374 377 371
0.695983 1329949370.980574 506 503 605 374 376 370
0.695983 1329949370.989210 506 503 605 374 376 370
0.695983 1329949370.997154 506 503 605 374 377 371
0.752200 1329949371.005913 506 503 605 374 377 370
0.752200 1329949371.014153 506 503 605 375 376 370
0.752200 1329949371.022761 506 503 605 374 376 370
0.752200 1329949371.030757 506 503 605 374 376 370
0.752200 1329949371.038948 506 503 605 374 376 370
0.752200 1329949371.047595 506 503 605 375 376 370
0.810852 1329949371.055893 506 503 605 373 375 371
0.810852 1329949371.064061 506 503 605 374 376 370
0.810852 1329949371.072275 506 503 606 374 378 371
0.810852 1329949371.080659 506 503 605 374 376 370
0.810852 1329949371.089037 506 503 605 374 375 371
0.810852 1329949371.097289 506 503 605 374 375 370
0.877077 1329949371.105993 506 503 605 374 376 370
0.877077 1329949371.114136 506 503 605 374 377 371
0.877077 1329949371.122339 506 503 605 374 377 370
0.877077 1329949371.130470 506 503 605 374 375 371
0.877077 1329949371.139037 506 503 605 374 376 370
0.877077 1329949371.147227 506 503 605 374 376 370
0.935652 1329949371.155962 506 503 606 374 376 370
0.935652 1329949371.166633 506 503 605 374 376 371
0.935652 1329949371.174268 506 503 605 373 376 370
0.935652 1329949371.180546 506 503 606 375 376 370
0.935652 1329949371.188717 506 503 605 374 377 371
0.935652 1329949371.197279 506 503 605 375 376 370
0.994182 1329949371.205707 507 503 605 373 376 370
0.994182 1329949371.214273 506 503 605 374 376 370
0.994182 1329949371.231749 506 503 606 374 377 371
0.994182 1329949371.239639 506 503 605 375 376 371
0.994182 1329949371.253742 506 503 605 374 376 371
0.994182 1329949371.255567 506 503 605 374 375 371
1.071101 1329949371.264011 506 503 605 373 376 368
1.071101 1329949371.294114 506 503 605 375 377 371
1.071101 1329949371.297426 506 503 605 374 376 371
1.071101 1329949371.310478 506 503 605 373 376 371
1.071101 1329949371.319320 506 503 605 374 377 370
1.071101 1329949371.326801 506 503 605 373 377 370
1.110401 1329949371.330427 506 503 605 374 376 371
1.110401 1329949371.348440 506 503 605 374 376 371
1.110401 1329949371.355548 506 503 605 374 375 370
1.110401 1329949371.363794 506 503 605 374 377 371
1.110401 1329949371.372314 506 503 605 374 376 370
1.110401 1329949371.380769 506 503 605 374 376 371
1.174133 1329949371.388926 506 504 605 374 377 371
1.174133 1329949371.399355 506 503 605 374 376 371
1.174133 1329949371.411397 506 503 605 374 376 370
1.174133 1329949371.445183 506 503 605 374 376 370
1.174133 1329949371.456929 506 503 605 374 376 370
1.174133 1329949371.464230 506 503 605 374 377 370
1.234922 1329949371.476922 506 503 605 374 376 370
1.234922 1329949371.488406 506 503 606 375 375 370
1.234922 1329949371.490391 506 503 605 375 375 371
1.234922 1329949371.497581 506 503 605 374 376 370
1.234922 1329949371.505440 506 503 605 374 376 370
1.234922 1329949371.513712 506 503 605 375 376 371
1.293159 1329949371.521979 506 503 605 374 377 370
1.293159 1329949371.530770 506 503 605 374 376 370
1.293159 1329949371.540641 506 503 605 374 376 370
1.293159 1329949371.546888 506 503 605 373 376 370
1.293159 1329949371.555335 506 503 605 374 376 370
1.293159 1329949371.563874 506 503 605 375 376 370
1.351943 1329949371.571966 506 503 605 375 376 370
1.351943 1329949371.580473 506 503 605 374 376 370
1.351943 1329949371.589039 506 503 605 373 377 371
1.351943 1329949371.596930 506 503 605 374 376 370
1.351943 1329949371.605451 506 503 605 374 377 370
1.351943 1329949371.613635 506 503 605 374 376 370
1.409977 1329949371.621925 506 504 605 375 376 370
1.409977 1329949371.630723 506 504 605 374 376 371
1.409977 1329949371.638719 506 503 605 374 375 371
1.409977 1329949371.647148 506 503 605 374 376 370
1.409977 1329949371.655442 505 503 605 375 376 369
1.409977 1329949371.666765 506 503 606 375 376 370
1.479317 1329949371.671716 506 503 605 374 376 371
1.479317 1329949371.680458 506 503 605 375 377 371
1.479317 1329949371.688558 506 503 605 374 376 371
1.479317 1329949371.697003 506 503 606 375 376 371
1.479317 1329949371.705142 506 503 605 374 376 370
1.479317 1329949371.713568 506 503 606 374 377 370
1.538561 1329949371.721739 506 503 605 374 376 369
1.538561 1329949371.730567 506 503 606 374 376 371
1.538561 1329949371.747352 506 503 605 374 376 370
1.538561 1329949371.755205 506 503 605 374 376 369
1.550779 1329949371.763547 506 503 606 374 376 371
1.550779 1329949371.771709 506 503 605 375 376 370
1.584671 1329949371.780239 506 503 605 375 376 370
1.610248 1329949371.788659 507 503 605 375 376 370
1.610248 1329949371.796591 506 504 605 375 377 370
1.643415 1329949371.805315 506 503 605 374 376 370
1.668528 1329949371.813554 506 503 605 374 376 370
1.668528 1329949371.821493 506 503 605 374 377 371
1.701881 1329949371.830016 506 503 605 374 376 370
1.734809 1329949371.838787 506 503 605 374 376 370
1.734809 1329949371.847541 506 503 605 374 376 370
1.760247 1329949371.855169 506 503 605 375 376 370
1.793386 1329949371.863275 506 503 605 374 376 372
1.793386 1329949371.871402 506 503 605 375 376 371
1.826084 1329949371.879774 506 503 605 375 376 370
1.854855 1329949371.888568 506 503 605 375 375 371
1.854855 1329949371.915785 506 503 605 374 376 371
1.884733 1329949371.927953 506 503 605 374 375 370
1.915609 1329949371.931926 506 503 605 374 376 370
1.915609 1329949371.938604 506 503 606 374 376 370
1.943379 1329949371.946443 506 503 605 374 377 370
1.968295 1329949371.954988 506 503 605 374 376 371
1.968295 1329949371.962780 506 503 605 374 375 370
2.001452 1329949371.974479 506 503 605 375 376 370
2.034184 1329949372.007817 506 503 606 375 376 371
2.034184 1329949372.018763 506 503 605 374 377 370
2.064708 1329949372.021329 506 503 605 374 376 370
2.092942 1329949372.029712 506 503 605 374 376 371
2.092942 1329949372.037731 506 503 606 374 376 371
2.126020 1329949372.046559 506 503 605 375 376 370
2.151347 1329949372.055001 506 503 605 374 376 370
2.151347 1329949372.062946 506 503 606 375 376 371
2.183751 1329949372.071004 506 503 605 374 376 370
2.209350 1329949372.079573 506 503 605 374 376 371
2.209350 1329949372.087891 506 503 605 375 375 371
2.242882 1329949372.096563 506 503 605 374 376 370
2.276287 1329949372.104967 506 503 605 375 377 370
2.276287 1329949372.114208 506 503 605 375 375 371
2.301299 1329949372.121082 506 503 605 375 375 370
2.329749 1329949372.129518 506 503 605 374 376 370
2.329749 1329949372.137799 506 503 605 374 377 370
2.359287 1329949372.146486 506 503 605 374 376 370
2.392366 1329949372.154839 507 503 605 375 376 370
2.392366 1329949372.165007 506 503 605 373 376 370
2.425602 1329949372.196465 506 503 605 374 376 370
2.450670 1329949372.207609 506 503 605 374 376 370
2.450670 1329949372.212613 507 503 605 374 376 370
2.479673 1329949372.221371 506 503 605 374 376 369
2.516481 1329949372.229819 506 503 605 375 376 371
2.516481 1329949372.237756 506 503 605 375 375 370
2.542190 1329949372.254645 506 504 605 374 376 370
2.585851 1329949372.278133 506 503 605 375 377 371
2.585851 1329949372.300437 506 503 605 374 377 371
2.611597 1329949372.323917 506 503 605 375 376 370
2.641999 1329949372.337751 506 503 605 374 376 370
2.683757 1329949372.351547 506 503 605 374 376 370
2.683757 1329949372.383323 506 503 605 374 376 371
2.708951 1329949372.395398 506 503 605 375 377 370
2.741776 1329949372.399697 506 503 605 374 376 370
2.784218 1329949372.404923 506 503 605 374 377 370
2.784218 1329949372.413146 505 504 605 374 376 370
2.825129 1329949372.421391 507 503 606 374 376 370
2.860297 1329949372.429424 505 504 605 374 376 370
2.900169 1329949372.437855 507 503 606 374 377 369
2.941785 1329949372.445904 507 502 605 374 377 370
2.983509 1329949372.455011 503 501 606 377 383 379
3.024782 1329949372.463068 503 499 605 381 395 375
3.066575 1329949372.471056 516 511 607 377 391 377
3.108389 1329949372.479373 516 513 631 362 389 368
3.141798 1329949372.488062 518 519 643 361 358 362
3.183116 1329949372.496080 509 516 634 368 339 360
3.225260 1329949372.504833 508 513 622 377 346 370
3.283628 1329949372.513162 511 515 612 370 366 371
3.306637 1329949372.521298 513 512 608 373 387 367
3.341857 1329949372.529528 513 512 605 374 387 363
3.341857 1329949372.537936 513 515 603 369 392 360
3.384469 1329949372.546517 512 517 604 377 396 363
3.384469 1329949372.554815 515 514 605 385 394 366
3.425669 1329949372.563210 517 508 604 385 389 364
3.425669 1329949372.571330 513 507 602 383 386 359
3.466809 1329949372.579468 510 503 597 376 390 357
3.466809 1329949372.588180 507 504 597 377 398 359
3.508611 1329949372.598432 509 505 599 386 399 364
3.508611 1329949372.604791 514 504 602 383 398 365
3.541480 1329949372.612918 519 505 602 375 398 365
3.541480 1329949372.621221 521 510 603 369 400 366
3.583267 1329949372.629545 519 508 604 367 401 363
3.583267 1329949372.637974 518 502 603 364 391 362
3.624902 1329949372.646123 513 503 603 359 383 365
3.624902 1329949372.654675 509 506 602 358 383 369
3.666873 1329949372.662991 513 509 599 360 380 371
3.666873 1329949372.670821 515 507 596 367 379 370
3.708547 1329949372.681511 511 508 595 373 381 366
3.708547 1329949372.687860 512 505 595 378 384 362
3.741419 1329949372.699365 511 503 595 383 384 358
3.741419 1329949372.704482 513 502 593 389 381 358
3.783165 1329949372.712870 510 500 594 400 378 362
3.783165 1329949372.721062 507 501 596 410 380 368
3.824783 1329949372.729352 509 502 600 414 384 373
3.824783 1329949372.737775 514 498 600 410 382 374
3.866694 1329949372.746027 511 495 603 403 381 373
3.866694 1329949372.760331 506 494 606 392 386 374
3.908337 1329949372.762863 503 490 608 381 392 376
3.908337 1329949372.770909 506 488 608 368 396 376
3.941263 1329949372.778986 509 489 607 358 390 377
3.941263 1329949372.787968 508 489 608 353 383 378
3.982828 1329949372.796063 506 488 608 349 379 378
3.982828 1329949372.804139 506 490 608 347 374 380
4.025098 1329949372.812951 507 492 607 349 369 380
4.025098 1329949372.823809 509 494 605 349 367 378
4.066524 1329949372.829359 511 495 604 350 370 373
4.066524 1329949372.837751 512 499 602 354 371 371
4.108053 1329949372.846246 517 500 602 359 367 374
4.108053 1329949372.859623 517 504 604 361 365 375
4.141481 1329949372.862615 515 504 604 361 362 374
4.141481 1329949372.871184 514 500 604 361 358 373
4.183405 1329949372.878821 511 499 603 363 355 373
4.183405 1329949372.888072 509 503 600 373 352 374
4.222434 1329949372.896131 511 507 597 383 351 376
4.222434 1329949372.909359 514 508 598 387 352 378
4.266490 1329949372.912504 509 502 600 382 356 375
4.266490 1329949372.921056 502 497 600 378 360 373
4.307780 1329949372.929002 501 496 600 377 361 371
4.307780 1329949372.937650 504 500 599 375 362 375
4.341075 1329949372.946067 508 503 599 373 367 375
4.341075 1329949372.957812 508 503 598 370 377 374
4.383043 1329949372.963401 507 503 600 368 384 372
4.383043 1329949372.970772 505 502 602 370 390 370
4.424921 1329949372.979890 507 502 603 370 391 371
4.424921 1329949372.987651 510 503 602 367 389 369
4.466031 1329949372.995997 509 503 604 370 387 366
4.466031 1329949373.011516 507 504 605 374 386 365
4.507950 1329949373.013930 508 501 605 375 385 366
4.507950 1329949373.021014 508 502 606 376 383 366
4.541332 1329949373.028439 509 503 607 380 380 366
4.541332 1329949373.037703 509 502 607 379 377 367
4.582710 1329949373.045954 511 502 605 374 375 369
4.582710 1329949373.054112 510 503 605 370 372 372
4.624497 1329949373.070775 514 501 603 368 368 373
4.624497 1329949373.073236 509 504 604 363 367 374
4.668583 1329949373.078778 510 506 605 361 369 379
4.668583 1329949373.087556 512 508 603 359 373 379
4.707674 1329949373.095861 510 507 603 362 373 374
4.707674 1329949373.104281 508 505 602 368 370 374
4.740764 1329949373.112592 509 506 602 378 367 374
4.740764 1329949373.120919 509 508 602 382 370 375
4.785095 1329949373.128396 510 509 602 380 376 373
4.785095 1329949373.137541 510 508 603 375 377 373
4.824080 1329949373.145901 509 506 605 373 378 372
4.824080 1329949373.154159 510 507 606 373 376 373
4.866025 1329949373.162410 510 510 606 372 375 375
4.866025 1329949373.174301 512 513 607 372 377 373
4.907212 1329949373.178516 512 511 607 376 378 370
4.907212 1329949373.187377 508 507 607 381 375 368
4.943935 1329949373.195334 506 504 607 382 371 370
4.943935 1329949373.204026 509 505 607 378 373 372
4.985849 1329949373.211798 511 510 607 373 376 373
4.985849 1329949373.223477 514 513 604 367 379 371
5.023830 1329949373.228547 510 508 604 362 380 370
5.023830 1329949373.236974 508 506 604 361 379 374
5.065458 1329949373.245557 510 513 604 364 379 374
5.065458 1329949373.253702 513 515 604 366 381 374
5.107104 1329949373.261897 513 513 604 369 381 372
5.107104 1329949373.270272 513 510 603 371 379 371
5.140726 1329949373.278510 512 509 602 374 379 370
5.140726 1329949373.286903 513 511 603 377 381 372
5.181935 1329949373.295336 514 510 604 381 380 373
5.181935 1329949373.303641 514 508 604 382 380 373
5.223780 1329949373.311623 514 505 604 379 381 371
5.223780 1329949373.324196 512 506 605 379 379 373
5.265371 1329949373.346809 513 508 605 381 377 373
5.265371 1329949373.361051 512 508 604 384 375 372
5.307061 1329949373.363076 512 508 604 388 373 375
5.307061 1329949373.370300 511 510 605 390 373 376
5.340270 1329949373.378476 512 513 607 393 372 373
5.340270 1329949373.386875 511 512 607 395 370 372
5.381738 1329949373.394971 510 511 608 392 368 368
5.381738 1329949373.403705 509 509 608 390 370 368
5.423586 1329949373.411710 510 510 608 387 373 365
5.423586 1329949373.419827 510 510 608 387 373 366
5.472205 1329949373.430485 511 510 609 386 372 364
5.472205 1329949373.436706 511 510 609 382 373 361
5.507310 1329949373.456239 511 508 608 378 371 360
5.507310 1329949373.469593 511 507 608 378 369 358
5.540170 1329949373.471867 511 508 607 381 369 359
5.540170 1329949373.478176 512 507 606 381 367 360
5.581704 1329949373.486603 512 506 605 380 368 358
5.581704 1329949373.494972 512 505 604 380 367 358
5.623471 1329949373.503541 510 504 603 386 367 357
5.623471 1329949373.511943 510 506 603 394 364 358
5.664805 1329949373.520141 509 509 601 407 364 358
5.664805 1329949373.528471 509 510 601 415 366 356
5.699830 1329949373.536698 509 511 599 423 371 354
5.699830 1329949373.545135 510 510 600 430 373 351
5.739821 1329949373.553508 511 506 601 433 371 348
5.739821 1329949373.561646 511 505 600 428 371 345
5.781544 1329949373.570668 513 506 600 422 375 341
5.781544 1329949373.578244 514 506 601 416 378 338
5.823133 1329949373.586447 512 505 601 413 382 335
5.823133 1329949373.595010 511 502 601 415 383 332
5.865446 1329949373.603620 514 505 601 412 383 331
5.865446 1329949373.611831 517 506 601 409 385 324
5.903320 1329949373.628975 518 499 601 405 386 318
5.903320 1329949373.641946 519 497 602 404 387 315
5.939924 1329949373.644773 519 497 604 404 387 313
5.939924 1329949373.653258 520 494 604 403 385 313
5.981824 1329949373.661856 521 491 605 404 381 312
5.981824 1329949373.669809 519 491 604 407 381 314
6.023656 1329949373.688541 522 491 605 405 381 311
6.023656 1329949373.703115 523 484 606 402 379 307
6.064880 1329949373.705061 523 480 606 398 375 306
6.064880 1329949373.711625 522 478 606 393 370 303
6.106638 1329949373.719722 522 475 606 391 368 301
6.106638 1329949373.728367 521 475 606 392 370 299
6.152009 1329949373.736643 520 475 605 387 371 299
6.152009 1329949373.744954 519 472 606 377 371 299
6.181257 1329949373.753045 519 471 609 372 373 299
6.181257 1329949373.761399 521 470 611 369 373 299
6.223445 1329949373.769525 521 472 614 366 372 299
6.223445 1329949373.778034 523 474 616 357 372 301
6.265113 1329949373.786478 523 471 618 352 370 303
6.265113 1329949373.794809 523 472 620 348 365 303
6.306823 1329949373.804773 523 475 622 341 359 301
6.306823 1329949373.811573 523 475 621 332 353 300
6.340168 1329949373.819326 522 473 623 326 351 299
6.340168 1329949373.828096 521 472 625 326 350 299
6.381774 1329949373.836278 521 475 627 326 349 299
6.381774 1329949373.849738 519 477 629 324 345 300
6.423144 1329949373.854396 518 478 631 318 342 299
6.423144 1329949373.861963 519 474 634 311 340 293
6.465260 1329949373.869421 519 467 638 305 336 292
6.465260 1329949373.877991 518 467 640 304 327 295
6.512580 1329949373.886418 517 469 641 296 317 296
6.512580 1329949373.894582 518 472 641 285 305 296
6.540433 1329949373.904224 515 473 641 271 296 296
6.540433 1329949373.911249 514 473 637 261 288 292
6.581690 1329949373.919487 513 470 633 252 286 289
6.581690 1329949373.928052 510 466 628 245 286 285
6.620104 1329949373.936333 508 461 625 241 282 284
6.620104 1329949373.944570 506 459 617 246 282 287
6.664768 1329949373.953036 503 460 605 252 285 292
6.664768 1329949373.961453 503 458 596 257 301 298
6.705928 1329949373.969582 506 451 589 261 320 306
6.705928 1329949373.977712 510 446 582 272 332 316
6.739810 1329949373.986416 510 444 576 286 337 326
6.739810 1329949373.994760 512 437 572 306 337 338
6.781802 1329949374.002983 517 431 566 327 332 354
6.781802 1329949374.011323 519 424 561 340 332 370
6.822347 1329949374.019404 524 416 556 339 333 396
6.822347 1329949374.027716 531 411 554 337 332 429
6.863340 1329949374.036213 538 406 551 340 330 470
6.863340 1329949374.044783 530 409 548 340 332 526
6.907745 1329949374.061344 544 415 548 346 335 593
6.907745 1329949374.069874 570 437 551 370 339 669
6.947444 1329949374.077583 589 479 551 394 350 731
6.947444 1329949374.085909 615 502 562 431 358 773
6.980465 1329949374.094512 660 535 574 482 385 819
6.980465 1329949374.102820 688 600 594 525 418 843
7.021928 1329949374.128301 713 635 621 524 433 810
7.021928 1329949374.151257 704 634 647 489 419 745
7.063151 1329949374.162391 679 632 660 464 390 694
7.063151 1329949374.169694 663 633 662 450 353 636
7.104924 1329949374.177937 640 622 659 430 325 582
7.104924 1329949374.186453 626 604 648 411 304 545
7.147764 1329949374.196841 609 597 633 402 298 522
7.147764 1329949374.211348 592 600 623 399 311 501
7.181176 1329949374.223063 582 601 620 395 317 480
7.181176 1329949374.229146 574 590 616 398 317 457
7.220980 1329949374.240903 564 574 609 404 320 438
7.220980 1329949374.244711 559 557 606 411 329 429
7.262414 1329949374.253026 553 547 605 412 332 428
7.262414 1329949374.270200 547 545 602 415 330 425
7.304170 1329949374.277842 543 543 601 420 338 416
7.304170 1329949374.286049 543 539 604 426 348 410
7.345754 1329949374.294677 539 534 609 431 348 408
7.345754 1329949374.303084 534 532 611 436 343 411
7.379131 1329949374.311485 533 531 609 439 336 410
7.379131 1329949374.319692 531 527 609 444 337 406
7.425400 1329949374.327819 528 523 610 448 342 400
7.425400 1329949374.336310 528 518 610 448 343 394
7.462253 1329949374.344522 527 513 611 445 344 389
7.462253 1329949374.353214 525 510 611 442 346 385
7.503798 1329949374.361475 525 509 611 434 349 380
7.503798 1329949374.369438 523 507 611 421 345 377
7.540694 1329949374.377945 522 503 609 411 341 374
7.540694 1329949374.386008 517 497 607 407 343 371
7.587179 1329949374.394383 517 495 606 406 346 371
7.587179 1329949374.403029 514 496 608 401 348 370
7.620505 1329949374.411377 510 499 608 395 345 369
7.620505 1329949374.419533 512 496 608 390 345 368
7.662129 1329949374.427915 511 494 609 389 347 367
7.662129 1329949374.436028 510 494 609 391 347 366
7.703778 1329949374.444600 508 493 609 394 348 364
7.703778 1329949374.453147 509 493 609 398 343 362
7.745341 1329949374.461425 509 493 608 398 341 358
7.745341 1329949374.469659 509 491 608 402 339 361
7.780923 1329949374.477750 507 492 607 412 333 362
7.780923 1329949374.485952 509 492 606 418 333 361
7.819844 1329949374.494497 511 491 605 422 334 360
7.819844 1329949374.503181 508 494 605 420 334 357
7.861751 1329949374.511511 506 494 604 414 326 356
7.861751 1329949374.519547 509 491 601 410 322 355
7.903342 1329949374.527863 514 492 599 408 324 355
7.903342 1329949374.536072 514 497 600 401 325 353
7.945179 1329949374.544430 511 499 601 395 321 350
7.945179 1329949374.553168 514 502 599 390 315 348
7.990933 1329949374.561302 520 509 597 385 315 347
7.990933 1329949374.569492 528 515 598 379 316 341
8.020160 1329949374.577713 535 521 600 380 314 331
8.020160 1329949374.586011 539 529 599 383 313 322
8.062112 1329949374.594308 550 539 599 384 310 310
8.062112 1329949374.603052 559 547 595 382 301 294
8.103830 1329949374.611220 567 556 594 378 292 272
8.103830 1329949374.619282 575 562 592 366 285 241
8.141352 1329949374.627840 575 563 586 342 278 194
8.141352 1329949374.636027 579 561 577 310 275 141
8.179643 1329949374.644211 588 556 572 273 293 85
8.179643 1329949374.652814 612 552 570 229 332 18
8.221572 1329949374.661249 631 548 572 171 377 4
8.221572 1329949374.669379 654 516 584 112 433 4
8.263340 1329949374.679751 707 441 618 101 520 4
8.263340 1329949374.685983 755 326 663 162 593 4
8.288276 1329949374.694398 716 279 694 242 589 4
8.288276 1329949374.702838 702 340 717 290 525 5
8.321327 1329949374.711441 675 375 721 354 455 47
8.359388 1329949374.719231 657 383 706 374 408 86
8.359388 1329949374.731941 634 378 696 358 367 126
8.413940 1329949374.735927 607 388 682 351 329 173
8.413940 1329949374.744204 581 404 660 338 297 217
8.453599 1329949374.752920 566 409 637 319 275 255
8.453599 1329949374.761339 557 414 621 300 270 290
8.479691 1329949374.769222 549 422 608 290 276 318
8.479691 1329949374.777643 544 437 598 294 287 342
8.521385 1329949374.785914 539 455 593 304 305 359
8.521385 1329949374.794266 530 466 589 315 323 371
8.563127 1329949374.803000 525 471 586 325 332 382
8.563127 1329949374.810888 524 477 584 335 338 393
8.604449 1329949374.821466 524 485 583 341 347 404
8.604449 1329949374.827499 523 490 585 352 359 412
8.646227 1329949374.848314 521 491 589 368 366 417
8.646227 1329949374.862258 521 494 591 382 368 425
8.679748 1329949374.869714 522 500 590 385 365 435
8.679748 1329949374.877692 522 503 589 381 359 439
8.721367 1329949374.886104 522 505 590 376 358 437
8.721367 1329949374.894267 524 509 592 377 360 439
8.763279 1329949374.903073 525 517 594 382 362 445
8.763279 1329949374.911094 522 518 599 385 361 444
8.804602 1329949374.919375 523 518 600 393 359 445
8.804602 1329949374.927992 527 518 601 398 358 447
8.846076 1329949374.935942 524 518 602 402 360 449
8.846076 1329949374.944252 522 519 602 397 360 450
8.879429 1329949374.952812 526 519 604 392 358 449
8.879429 1329949374.961122 527 520 605 395 357 451
8.921327 1329949374.969592 528 521 606 404 360 451
8.921327 1329949374.977771 526 521 609 407 362 449
8.963015 1329949374.986050 524 520 608 401 361 445
8.963015 1329949374.994385 524 520 606 392 359 443
9.005544 1329949375.014633 521 520 606 388 358 442
9.005544 1329949375.019275 523 520 605 388 358 441
9.045750 1329949375.027998 525 520 605 390 361 437
9.045750 1329949375.035939 523 520 604 390 364 436
9.079451 1329949375.044475 520 520 603 390 364 439
9.079451 1329949375.052660 520 521 603 389 365 437
9.120108 1329949375.066954 520 520 602 386 368 433
9.120108 1329949375.071871 519 519 601 386 370 429
9.162200 1329949375.077974 519 519 601 389 374 426
9.162200 1329949375.086264 521 518 603 394 379 424
9.204086 1329949375.094398 521 517 602 394 379 421
9.204086 1329949375.102458 522 516 602 391 379 417
9.245708 1329949375.111081 522 514 599 391 380 414
9.245708 1329949375.118922 521 513 600 391 383 412
9.291897 1329949375.127931 521 510 601 391 385 412
9.291897 1329949375.136206 523 510 599 390 383 413
9.320791 1329949375.144141 521 511 600 391 387 414
9.320791 1329949375.152449 521 512 601 388 391 413
9.362239 1329949375.160800 521 512 602 386 393 409
9.362239 1329949375.169084 523 514 603 381 390 406
9.409585 1329949375.177731 524 513 605 380 390 402
9.409585 1329949375.185818 525 511 606 384 388 399
9.445120 1329949375.194450 523 509 607 383 389 400
9.445120 1329949375.202655 522 508 607 381 390 403
9.486872 1329949375.211202 522 506 606 381 388 405
9.486872 1329949375.218990 526 506 608 386 390 407
9.520220 1329949375.227707 528 508 610 388 393 405
9.520220 1329949375.235924 526 510 611 383 390 401
9.562046 1329949375.256707 525 509 609 369 379 397
9.602935 1329949375.262080 525 509 609 365 375 393
9.645308 1329949375.269536 523 506 605 365 370 390
9.686778 1329949375.277347 522 505 606 372 375 391
9.720314 1329949375.286208 522 504 606 381 371 391
9.768763 1329949375.294262 522 504 603 377 376 390
9.802997 1329949375.302390 523 505 605 367 376 386
9.844752 1329949375.310678 524 508 606 365 378 387
9.886096 1329949375.319502 523 507 607 371 378 380
9.919511 1329949375.327185 524 505 607 374 376 379
9.919511 1329949375.336034 523 506 605 375 380 382
9.961296 1329949375.344131 523 506 605 375 381 381
9.961296 1329949375.352619 524 505 606 375 380 378
10.002662 1329949375.360925 525 504 606 376 376 376
10.002662 1329949375.369424 525 504 605 378 374 376
10.044366 1329949375.377621 525 504 604 377 377 376
10.044366 1329949375.385875 525 504 604 375 380 377
10.084572 1329949375.394199 526 503 605 372 380 375
10.084572 1329949375.404154 525 503 605 373 379 374
10.133323 1329949375.410804 525 503 604 375 377 374
10.133323 1329949375.419270 525 503 604 376 379 375
10.161266 1329949375.427333 526 502 604 376 379 376
10.161266 1329949375.436063 525 503 605 378 381 375
10.202658 1329949375.444456 526 504 605 378 380 375
10.202658 1329949375.452511 526 504 604 377 379 373
10.252315 1329949375.460572 526 503 604 376 378 373
10.252315 1329949375.469102 526 502 605 374 379 372
10.290068 1329949375.477270 526 502 604 375 379 371
10.290068 1329949375.485962 527 502 604 376 381 371
10.327438 1329949375.493854 526 503 605 377 381 370
10.327438 1329949375.502201 527 502 606 378 379 369
10.360752 1329949375.513148 527 501 606 379 379 369
10.360752 1329949375.518989 527 501 605 379 380 368
10.415099 1329949375.527166 526 500 605 379 380 368
10.415099 1329949375.535863 527 500 604 380 380 370
10.443908 1329949375.544168 527 500 606 379 380 369
10.443908 1329949375.552288 527 500 604 379 380 370
10.485728 1329949375.568820 526 501 604 379 380 369
10.485728 1329949375.581267 526 500 604 379 379 369
10.534237 1329949375.585425 527 498 604 381 379 369
10.534237 1329949375.594164 528 498 603 382 379 370
10.560423 1329949375.602217 528 499 603 384 382 371
10.560423 1329949375.610513 527 499 604 387 382 370
10.602174 1329949375.618879 527 499 605 388 381 369
10.602174 1329949375.629672 528 499 605 387 378 370
10.643758 1329949375.635364 528 498 604 385 378 370
10.643758 1329949375.644032 528 497 604 381 378 368
10.685734 1329949375.652281 529 498 605 377 380 367
10.685734 1329949375.660283 528 498 606 376 380 366
10.726779 1329949375.668671 528 497 606 375 377 365
10.726779 1329949375.681694 529 496 606 377 378 365
10.760311 1329949375.685130 529 496 607 378 378 366
10.760311 1329949375.693938 528 496 607 378 376 366
10.801903 1329949375.702316 529 495 607 376 375 366
10.801903 1329949375.710621 529 495 605 377 375 367
10.843784 1329949375.718756 529 495 605 376 375 368
10.843784 1329949375.727395 528 495 605 376 375 368
10.885140 1329949375.735258 528 494 605 375 373 368
10.885140 1329949375.743904 528 494 604 376 372 369
10.930997 1329949375.751874 528 495 604 377 373 369
10.930997 1329949375.760293 528 495 603 375 374 369
10.959596 1329949375.768388 527 494 603 375 375 371
10.959596 1329949375.783994 527 494 602 377 376 371
11.001658 1329949375.788605 527 495 602 379 377 371
11.001658 1329949375.801603 528 496 602 379 377 371
11.043539 1329949375.816550 529 496 603 380 377 370
11.043539 1329949375.830390 528 497 604 379 380 368
11.084811 1329949375.835517 528 495 604 380 378 369
11.084811 1329949375.843851 529 494 604 381 379 368
11.126708 1329949375.851929 528 494 605 381 378 369
11.126708 1329949375.860180 528 495 605 381 378 371
11.159860 1329949375.868428 528 496 605 380 375 369
11.159860 1329949375.876899 527 496 604 379 375 371
11.208368 1329949375.885350 528 497 604 378 376 372
11.208368 1329949375.901612 527 498 605 385 376 374
11.242908 1329949375.904420 528 499 606 398 375 373
11.242908 1329949375.910242 527 501 606 417 373 376
11.284924 1329949375.918370 526 503 604 433 370 376
11.284924 1329949375.926766 526 504 604 448 369 376
11.332024 1329949375.935533 526 505 605 456 371 373
11.332024 1329949375.943612 527 504 604 464 370 367
11.359830 1329949375.951753 527 502 604 467 369 360
11.359830 1329949375.960235 529 501 602 470 368 354
11.401704 1329949375.968640 528 500 602 471 366 349
11.401704 1329949375.978711 528 499 602 471 365 342
11.442997 1329949375.985364 530 496 601 467 364 337
11.442997 1329949375.997067 531 493 600 457 364 331
11.479247 1329949376.001769 532 490 599 448 362 324
11.479247 1329949376.010057 532 487 599 437 360 317
11.533574 1329949376.018682 532 483 598 422 357 311
11.533574 1329949376.026612 534 481 596 405 358 305
11.559726 1329949376.035160 535 478 598 392 362 300
11.559726 1329949376.050030 535 477 600 390 359 297
11.601151 1329949376.064016 536 476 601 394 354 297
11.601151 1329949376.068375 536 476 601 395 353 296
11.642804 1329949376.076953 537 473 603 392 356 294
11.642804 1329949376.085285 538 472 607 391 357 294
11.690329 1329949376.093613 539 470 609 390 356 291
11.690329 1329949376.101746 541 468 611 385 353 288
11.734948 1329949376.109997 543 465 614 376 349 286
11.734948 1329949376.118064 546 463 618 369 342 281
11.759908 1329949376.126438 546 461 622 369 336 275
11.759908 1329949376.134720 546 460 624 371 330 273
11.801327 1329949376.143430 545 460 623 365 323 270
11.801327 1329949376.151666 548 457 625 349 315 265
11.842708 1329949376.160025 553 448 628 336 310 259
11.842708 1329949376.168156 554 444 630 323 307 256
11.884336 1329949376.176716 552 440 631 308 304 257
11.884336 1329949376.184879 550 435 633 297 299 261
11.926303 1329949376.193287 550 434 637 293 290 267
11.926303 1329949376.201451 547 437 635 283 281 274
11.959504 1329949376.210355 547 442 636 271 282 278
11.959504 1329949376.218063 543 445 638 267 275 278
12.001299 1329949376.226414 541 448 634 269 263 282
12.001299 1329949376.234788 536 450 625 259 254 282
12.043409 1329949376.243676 538 451 618 245 258 282
12.043409 1329949376.264123 533 452 616 243 262 277
12.084496 1329949376.268240 532 450 611 253 253 276
12.084496 1329949376.276548 529 446 601 264 248 279
12.139777 1329949376.284677 527 442 589 265 248 286
12.139777 1329949376.293191 522 440 580 258 259 296
12.159439 1329949376.301489 518 439 572 247 274 307
12.159439 1329949376.316803 514 438 568 240 289 320
12.201584 1329949376.319570 512 438 567 243 296 343
12.201584 1329949376.326541 513 437 564 264 296 368
12.248506 1329949376.335184 520 434 559 297 294 388
12.248506 1329949376.343135 529 430 553 331 303 405
12.284430 1329949376.351926 535 425 546 351 319 429
12.284430 1329949376.363317 541 422 544 350 325 457
12.318078 1329949376.368110 539 418 541 342 331 489
12.318078 1329949376.376264 550 417 541 327 338 524
12.358358 1329949376.384677 553 421 541 319 342 579
12.358358 1329949376.392797 570 429 543 325 345 634
12.398172 1329949376.401660 597 440 548 353 355 701
12.398172 1329949376.421544 636 475 558 400 375 784
12.442229 1329949376.426410 687 526 576 444 410 851
12.442229 1329949376.434827 735 572 605 480 445 891
12.483785 1329949376.443101 778 615 630 498 458 893
12.483785 1329949376.451434 772 663 655 488 450 857
12.525213 1329949376.459479 749 676 680 443 404 780
12.525213 1329949376.468066 703 681 686 391 347 695
12.560188 1329949376.476001 665 673 671 360 297 621
12.560188 1329949376.484723 638 650 649 346 261 562
12.599810 1329949376.492897 621 631 630 347 253 524
12.599810 1329949376.501248 608 618 617 363 263 501
12.640733 1329949376.509443 596 609 608 388 274 487
12.640733 1329949376.518337 582 600 603 414 283 475
12.682647 1329949376.538585 573 586 603 440 293 462
12.682647 1329949376.544478 567 578 605 463 305 458
12.725353 1329949376.551355 556 571 608 479 313 453
12.725353 1329949376.559520 550 567 610 486 316 447
12.767365 1329949376.567912 550 562 610 483 317 440
12.767365 1329949376.576247 549 555 610 473 323 428
12.807030 1329949376.584406 546 546 612 459 329 414
12.807030 1329949376.593129 544 540 612 443 329 407
12.843702 1329949376.601480 543 535 613 436 330 402
12.843702 1329949376.609444 537 532 613 444 329 393
12.881936 1329949376.617908 535 526 613 450 327 387
12.881936 1329949376.626154 533 519 615 449 328 387
12.923946 1329949376.634565 531 514 616 443 323 388
12.923946 1329949376.643186 529 510 616 439 316 388
12.965337 1329949376.651131 530 507 616 441 313 382
12.965337 1329949376.659297 526 506 615 441 307 381
13.003956 1329949376.667724 519 504 613 441 299 379
13.003956 1329949376.676534 517 500 610 444 293 376
13.040181 1329949376.684698 516 496 606 447 295 374
13.040181 1329949376.693344 514 491 605 448 300 371
13.081673 1329949376.701771 510 488 604 447 300 373
13.081673 1329949376.710064 507 488 601 444 295 375
13.123407 1329949376.717957 506 489 596 442 291 376
13.123407 1329949376.726558 508 489 592 437 291 376
13.175918 1329949376.747888 508 489 587 432 291 376
13.175918 1329949376.751496 506 492 584 426 288 377
13.206677 1329949376.759714 509 495 579 426 285 379
13.206677 1329949376.768061 510 499 574 424 283 383
13.243270 1329949376.776613 512 505 567 418 282 389
13.243270 1329949376.784638 519 514 563 411 282 392
13.281958 1329949376.793161 527 522 559 408 285 388
13.281958 1329949376.801599 535 534 558 404 291 379
13.323797 1329949376.809581 539 547 562 400 302 362
13.323797 1329949376.817969 548 562 565 393 308 330
13.365753 1329949376.826485 552 575 567 375 318 288
13.365753 1329949376.834847 551 590 572 342 322 239
13.399758 1329949376.842845 556 603 575 299 331 169
13.399758 1329949376.858828 568 602 581 248 358 78
13.441401 1329949376.861796 587 586 591 173 394 4
13.441401 1329949376.868253 634 549 607 80 436 4
13.482271 1329949376.876544 702 489 636 22 505 4
13.482271 1329949376.884857 772 425 676 7 575 4
13.530306 1329949376.892759 815 366 722 23 613 4
13.530306 1329949376.901279 799 338 764 74 593 4
13.566396 1329949376.909553 752 335 781 125 524 4
13.566396 1329949376.917919 708 361 763 174 444 59
13.599962 1329949376.926472 666 389 737 227 385 127
13.599962 1329949376.934754 637 412 718 302 336 183
13.641693 1329949376.943068 611 438 691 364 289 232
13.641693 1329949376.951420 588 460 660 386 261 264
13.685916 1329949376.972683 572 471 632 378 249 285
13.685916 1329949376.996605 564 473 612 365 253 302
13.724081 1329949377.011569 558 473 601 362 269 314
13.724081 1329949377.018078 546 472 592 365 289 325
13.766191 1329949377.026035 535 473 586 377 301 340
13.766191 1329949377.034740 523 477 583 392 307 355
13.800004 1329949377.049891 517 483 580 401 316 367
13.800004 1329949377.053606 513 488 580 403 332 377
13.841563 1329949377.059914 508 492 581 397 344 389
13.841563 1329949377.068088 503 493 583 391 351 399
13.883147 1329949377.076344 506 494 585 392 354 407
13.883147 1329949377.085004 511 497 586 402 359 414
13.934354 1329949377.092695 510 500 587 413 363 424
13.934354 1329949377.101140 505 503 586 416 363 433
13.966413 1329949377.109783 504 506 588 413 362 438
13.966413 1329949377.118053 511 510 587 409 367 442
14.003828 1329949377.126252 515 515 590 405 380 447
14.003828 1329949377.135014 510 517 592 397 387 447
14.041339 1329949377.142701 509 516 594 394 387 444
14.041339 1329949377.151485 516 516 596 397 388 444
14.083019 1329949377.159990 520 519 598 396 390 445
14.083019 1329949377.168089 517 521 601 388 388 446
14.135916 1329949377.176214 516 521 600 387 379 445
14.135916 1329949377.184820 522 520 599 391 377 445
14.165997 1329949377.192451 528 522 601 394 381 444
14.165997 1329949377.201203 526 524 603 391 380 439
14.199245 1329949377.209918 520 525 604 386 373 434
14.199245 1329949377.218071 518 523 604 385 369 431
14.254255 1329949377.226401 526 521 604 387 374 432
14.254255 1329949377.234803 524 522 606 389 379 432
14.282733 1329949377.249677 521 523 608 383 379 428
14.282733 1329949377.252996 519 522 609 381 377 424
14.324238 1329949377.259916 521 519 608 385 376 424
14.324238 1329949377.267806 523 517 609 396 377 426
14.365876 1329949377.276376 523 517 609 402 380 428
14.365876 1329949377.284906 524 515 610 404 380 431
14.399142 1329949377.292736 526 511 609 405 377 431
14.399142 1329949377.301222 528 509 608 408 376 433
14.440315 1329949377.309900 528 510 608 404 374 431
14.440315 1329949377.317850 523 511 609 391 374 427
14.482055 1329949377.326379 522 510 609 381 372 426
14.482055 1329949377.334918 521 508 609 380 367 427
14.523429 1329949377.342953 524 505 609 395 369 429
14.523429 1329949377.357250 523 506 607 406 374 433
14.560722 1329949377.361207 520 506 606 406 377 434
14.560722 1329949377.368260 521 507 607 401 379 433
14.627093 1329949377.376315 520 507 608 397 378 435
14.627093 1329949377.385024 524 508 608 400 377 435
14.651610 1329949377.392668 522 509 608 398 379 428
14.651610 1329949377.401342 522 511 608 389 380 423
14.681464 1329949377.409907 522 510 606 380 377 417
14.681464 1329949377.418222 521 510 605 374 379 413
14.723293 1329949377.426333 523 509 605 375 382 412
14.723293 1329949377.435002 524 508 606 380 384 408
14.765266 1329949377.443303 524 507 607 381 384 404
14.765266 1329949377.464679 522 507 606 382 382 403
14.809668 1329949377.468579 523 506 604 383 384 402
14.809668 1329949377.476505 524 506 605 387 381 401
14.840259 1329949377.484542 524 506 605 388 381 398
14.840259 1329949377.493148 525 505 605 388 378 395
14.888575 1329949377.500919 524 504 604 387 378 392
14.888575 1329949377.509336 523 505 603 381 377 391
14.941067 1329949377.517979 520 505 603 376 379 389
14.941067 1329949377.526067 521 503 605 371 382 387
14.964754 1329949377.534143 523 500 606 372 381 388
14.964754 1329949377.542792 520 499 605 374 377 388
15.006115 1329949377.550537 522 498 603 374 380 389
15.006115 1329949377.566822 524 498 604 373 381 389
15.038847 1329949377.573296 525 500 605 374 383 389
15.038847 1329949377.576690 525 502 605 371 382 388
15.081420 1329949377.584407 525 503 604 370 382 385
15.081420 1329949377.592850 527 502 604 369 383 383
15.122882 1329949377.600972 526 501 605 373 385 381
15.122882 1329949377.622506 525 501 606 378 382 380
15.164091 1329949377.626478 525 499 605 382 381 379
15.164091 1329949377.634569 525 499 605 386 382 379
15.216858 1329949377.642764 524 499 606 384 383 378
15.216858 1329949377.651085 525 498 607 383 380 379
15.239023 1329949377.659006 525 497 607 380 377 377
15.239023 1329949377.667060 526 497 606 376 376 377
15.284648 1329949377.675848 526 498 606 374 379 376
15.284648 1329949377.683849 525 497 607 374 380 375
15.322377 1329949377.691713 526 497 607 374 377 375
15.322377 1329949377.700408 526 497 606 375 376 375
15.364008 1329949377.708107 526 498 605 374 377 374
15.364008 1329949377.716608 527 498 606 374 377 372
15.405036 1329949377.738024 526 496 607 374 376 370
15.405036 1329949377.752354 526 496 607 374 375 369
15.439178 1329949377.758506 526 495 605 376 375 369
15.439178 1329949377.767185 526 495 603 372 375 368
15.480562 1329949377.775520 526 495 604 372 378 367
15.480562 1329949377.783249 526 496 604 374 378 369
15.522132 1329949377.792084 525 495 604 376 377 368
15.522132 1329949377.800224 525 495 605 379 375 368
15.562879 1329949377.808902 526 495 604 379 375 368
15.562879 1329949377.817310 524 495 604 377 377 368
15.605402 1329949377.825142 526 495 604 376 374 367
15.605402 1329949377.832829 526 494 604 374 376 366
15.646604 1329949377.853783 525 494 604 376 375 366
15.646604 1329949377.858003 526 494 604 376 375 367
15.680467 1329949377.866501 524 494 603 376 378 367
15.680467 1329949377.875007 526 493 603 376 377 366
15.720329 1329949377.882962 526 493 603 377 378 367
15.720329 1329949377.890828 524 493 603 379 378 366
15.764545 1329949377.899795 525 492 603 379 378 368
15.764545 1329949377.907829 524 492 603 379 379 367
15.805211 1329949377.916168 525 490 603 380 378 368
15.805211 1329949377.924667 526 490 604 382 380 369
15.846927 1329949377.932739 526 491 605 381 382 371
15.846927 1329949377.940762 526 492 605 380 379 370
15.880145 1329949377.949524 525 491 605 378 379 371
15.880145 1329949377.957443 527 490 606 376 377 371
15.921535 1329949377.965972 527 491 606 376 378 370
15.921535 1329949377.974261 526 491 606 377 379 370
15.963163 1329949377.982316 526 491 605 376 376 372
15.963163 1329949377.992432 526 491 604 374 374 372
16.004979 1329949378.004085 526 492 604 372 378 372
16.004979 1329949378.009133 526 492 605 373 377 372
16.040789 1329949378.015565 526 491 605 373 375 371
16.040789 1329949378.025811 526 490 604 374 374 371
16.079980 1329949378.032499 525 490 604 375 375 372
16.079980 1329949378.044173 526 491 603 374 377 373
16.121265 1329949378.048652 525 492 603 374 379 373
16.121265 1329949378.057033 525 491 604 372 378 373
16.163024 1329949378.065646 526 490 605 376 377 374
16.163024 1329949378.073878 526 491 605 375 377 374
16.204875 1329949378.082271 526 492 605 374 378 374
16.204875 1329949378.091160 526 492 605 372 378 373
16.237784 1329949378.098714 526 492 606 372 376 372
16.237784 1329949378.107140 527 491 605 373 375 373
16.279762 1329949378.115507 526 492 605 372 375 372
16.279762 1329949378.123878 526 492 605 372 374 373
16.321585 1329949378.132346 526 492 604 372 375 372
16.321585 1329949378.140532 526 492 604 373 375 373
16.363065 1329949378.148839 526 492 605 374 375 373
16.363065 1329949378.157039 526 493 604 374 375 373
16.404936 1329949378.165206 526 492 604 375 374 374
16.404936 1329949378.174052 526 493 604 374 375 373
16.437870 1329949378.182280 526 493 603 374 376 373
16.437870 1329949378.190359 526 492 604 372 375 372
16.482518 1329949378.198693 526 492 604 374 375 372
16.482518 1329949378.206941 526 492 604 375 375 372
16.521234 1329949378.215366 526 492 604 377 376 373
16.521234 1329949378.223708 526 493 603 377 376 373
16.564220 1329949378.232231 526 494 603 374 375 373
16.564220 1329949378.240244 525 493 603 373 375 373
16.604742 1329949378.251402 525 493 603 373 375 372
16.604742 1329949378.259193 526 494 602 372 377 370
16.639908 1329949378.270049 526 495 603 371 379 370
16.639908 1329949378.273622 525 495 604 372 379 370
16.679790 1329949378.281893 525 495 604 374 379 369
16.679790 1329949378.290267 526 495 604 376 379 369
16.720966 1329949378.301131 526 496 604 378 380 369
16.720966 1329949378.306887 526 497 605 379 380 370
16.762772 1329949378.314824 526 498 605 381 377 369
16.762772 1329949378.323848 526 500 606 381 377 368
16.804083 1329949378.331803 527 501 607 384 378 365
16.804083 1329949378.340237 527 502 607 387 378 364
16.845689 1329949378.348427 527 501 607 390 376 362
16.845689 1329949378.356833 526 501 607 392 373 358
16.879435 1329949378.364967 527 501 605 396 373 356
16.879435 1329949378.373369 526 501 604 402 373 356
16.920461 1329949378.385174 527 499 604 409 373 354
16.920461 1329949378.390269 527 497 603 410 373 350
16.962607 1329949378.398677 526 496 604 412 374 347
16.962607 1329949378.407038 526 495 603 411 374 346
17.004418 1329949378.414866 527 494 603 412 374 346
17.004418 1329949378.423302 527 494 602 415 372 347
17.038116 1329949378.431796 529 495 601 418 371 348
17.038116 1329949378.440188 531 494 601 424 371 344
17.079244 1329949378.448747 531 492 601 428 370 340
17.079244 1329949378.463407 530 492 601 432 369 339
17.120788 1329949378.465162 530 492 601 440 369 337
17.120788 1329949378.473380 531 490 600 442 368 334
17.175435 1329949378.481687 534 486 598 442 363 334
17.175435 1329949378.490055 534 483 598 442 364 331
17.199201 1329949378.498461 533 481 598 442 362 328
17.199201 1329949378.506722 532 479 599 439 363 325
17.246063 1329949378.514843 533 479 599 430 364 320
17.246063 1329949378.523645 534 479 601 420 361 318
17.278878 1329949378.531868 534 476 601 416 358 313
17.278878 1329949378.539968 534 472 601 414 356 309
17.320979 1329949378.548391 534 472 600 406 354 304
17.320979 1329949378.556592 535 470 599 397 355 299
17.362098 1329949378.565139 535 466 600 393 356 295
17.362098 1329949378.573554 535 462 601 391 355 294
17.404233 1329949378.581925 536 463 601 387 355 294
17.404233 1329949378.589945 537 462 602 379 356 292
17.443993 1329949378.598400 540 460 605 374 359 293
17.443993 1329949378.606513 540 461 609 368 360 291
17.479303 1329949378.622854 539 462 613 363 356 289
17.479303 1329949378.625511 540 461 614 355 348 288
17.520832 1329949378.631621 543 458 616 351 342 285
17.520832 1329949378.639671 544 456 618 353 341 284
17.558697 1329949378.648288 544 456 621 354 338 284
17.558697 1329949378.656436 542 457 623 353 333 284
17.606918 1329949378.664519 541 456 626 344 327 282
17.606918 1329949378.680009 542 454 629 336 321 280
17.645440 1329949378.682298 543 451 631 331 313 280
17.645440 1329949378.689577 543 448 634 325 306 278
17.678773 1329949378.697992 542 447 634 319 299 277
17.678773 1329949378.706370 542 449 633 312 292 277
17.720563 1329949378.714433 538 451 632 304 280 277
17.720563 1329949378.723292 538 453 628 297 272 280
17.765552 1329949378.731596 534 455 624 288 268 280
17.765552 1329949378.739558 531 458 622 281 268 279
17.804354 1329949378.747934 530 459 619 284 262 280
17.804354 1329949378.756434 530 459 612 281 257 279
17.845443 1329949378.764958 527 457 601 265 257 276
17.845443 1329949378.772884 523 454 591 245 266 277
17.878903 1329949378.781493 521 451 584 223 278 280
17.878903 1329949378.789762 519 450 577 200 290 283
17.923442 1329949378.797756 518 447 574 189 299 289
17.923442 1329949378.806132 513 445 570 193 303 299
17.962356 1329949378.814807 513 442 564 201 304 314
17.962356 1329949378.822704 515 439 558 213 309 333
18.003901 1329949378.835605 516 437 553 222 319 353
18.003901 1329949378.839640 520 436 549 226 331 377
18.037705 1329949378.847860 521 436 547 235 344 405
18.037705 1329949378.856382 528 435 549 248 352 436
18.078244 1329949378.864796 538 430 551 274 359 469
18.078244 1329949378.872869 547 425 554 308 363 513
18.126996 1329949378.888324 563 420 559 340 371 567
18.126996 1329949378.890599 590 419 572 382 382 633
18.162030 1329949378.897858 614 430 591 446 396 714
18.162030 1329949378.906687 656 452 611 509 404 800
18.203703 1329949378.914831 715 484 630 540 409 871
18.203703 1329949378.923305 757 511 648 549 415 915
18.245471 1329949378.932053 803 551 666 545 405 941
18.245471 1329949378.940283 816 603 685 527 386 927
18.292713 1329949378.948390 773 634 694 482 351 837
18.292713 1329949378.956893 731 645 687 417 314 748
18.319045 1329949378.965112 694 642 673 364 283 671
18.319045 1329949378.973163 656 626 655 344 259 608
18.360900 1329949378.986009 632 607 631 348 252 555
18.360900 1329949378.990020 612 590 613 357 266 525
18.402170 1329949378.998591 596 577 601 369 283 509
18.402170 1329949379.007194 581 568 594 381 293 501
18.443562 1329949379.015205 569 565 591 394 306 489
18.443562 1329949379.024218 560 566 592 402 317 473
18.485413 1329949379.040851 552 559 592 403 325 454
18.485413 1329949379.053734 546 549 591 403 335 439
18.526195 1329949379.059359 541 539 592 402 344 423
18.526195 1329949379.066221 538 529 595 403 355 410
18.560030 1329949379.074063 535 521 601 406 361 400
18.560030 1329949379.082976 535 513 603 408 362 394
18.601598 1329949379.090962 533 506 607 412 366 391
18.601598 1329949379.101935 533 502 612 415 367 393
18.642405 1329949379.107998 530 503 618 412 363 400
18.642405 1329949379.116085 528 504 622 412 350 407
18.684474 1329949379.124281 529 502 625 422 338 407
18.684474 1329949379.132898 530 499 627 434 330 408
18.723365 1329949379.140984 524 498 627 442 321 407
18.723365 1329949379.150087 521 498 623 438 314 405
18.758947 1329949379.157925 517 496 619 426 312 401
18.758947 1329949379.166002 514 491 616 416 314 399
18.801369 1329949379.174300 510 488 613 410 318 398
18.801369 1329949379.182664 510 488 609 403 319 397
18.842904 1329949379.191121 507 489 604 395 320 393
18.842904 1329949379.203938 507 490 600 388 322 389
18.883909 1329949379.207699 507 490 598 383 326 384
18.883909 1329949379.216140 507 489 598 381 330 380
18.926137 1329949379.224249 504 488 598 383 331 379
18.926137 1329949379.232373 503 488 599 393 330 380
18.959279 1329949379.241064 503 488 599 404 329 382
18.959279 1329949379.258542 502 490 600 412 326 383
19.001064 1329949379.274919 500 493 599 414 320 380
19.001064 1329949379.298086 502 492 600 412 315 378
19.042585 1329949379.301112 504 492 599 411 311 377
19.042585 1329949379.307587 503 496 598 413 310 377
19.084131 1329949379.315858 505 500 595 415 307 378
19.084131 1329949379.324318 508 504 593 412 304 377
19.125938 1329949379.332677 510 508 588 409 301 375
19.125938 1329949379.340748 511 513 583 403 296 369
19.159079 1329949379.349527 517 518 576 399 294 359
19.159079 1329949379.357273 522 521 569 396 294 350
19.202413 1329949379.365972 527 527 563 397 300 343
19.202413 1329949379.374528 534 537 559 391 308 335
19.242892 1329949379.382294 539 549 559 383 313 316
19.242892 1329949379.391004 543 561 560 364 314 274
19.284662 1329949379.398936 545 570 560 332 318 224
19.284662 1329949379.407668 550 585 559 291 335 166
19.319484 1329949379.416141 558 601 562 236 369 80
19.319484 1329949379.424258 575 603 566 175 421 4
19.360261 1329949379.437104 617 574 581 133 488 4
19.360261 1329949379.441008 689 525 605 129 556 4
19.402291 1329949379.449106 779 455 647 158 620 4
19.402291 1329949379.457293 839 402 691 218 657 4
19.444080 1329949379.465957 839 371 735 265 636 4
19.444080 1329949379.474198 813 343 765 291 538 4
19.485612 1329949379.482463 779 322 770 318 426 4
19.485612 1329949379.490869 732 320 752 363 334 49
19.522117 1329949379.498864 674 346 721 401 263 134
19.522117 1329949379.507579 620 376 686 412 214 206
19.560091 1329949379.515734 591 409 650 390 190 263
19.560091 1329949379.524341 584 434 622 346 189 300
19.602180 1329949379.532474 568 450 601 308 199 323
19.602180 1329949379.540958 563 456 587 294 222 332
19.643851 1329949379.549179 553 462 578 304 247 343
19.643851 1329949379.557551 542 467 572 325 268 355
19.685573 1329949379.566012 534 473 571 353 288 364
19.685573 1329949379.574223 530 479 573 381 309 375
19.725240 1329949379.582590 521 484 572 405 327 386
19.725240 1329949379.591114 514 485 572 419 337 393
19.760305 1329949379.599001 513 484 571 422 348 396
19.760305 1329949379.607933 516 486 575 415 367 400
19.802169 1329949379.616326 515 490 580 404 380 407
19.802169 1329949379.624257 512 491 584 393 380 412
19.839572 1329949379.642216 510 491 586 390 374 414
19.839572 1329949379.649245 511 492 589 393 374 417
19.885125 1329949379.657720 511 496 592 396 376 421
19.885125 1329949379.666262 509 498 595 398 374 426
19.926836 1329949379.674334 511 498 596 402 376 431
19.926836 1329949379.682595 512 499 596 401 382 434
19.960415 1329949379.690738 514 500 598 399 385 434
19.960415 1329949379.699127 515 501 600 399 385 436
20.001642 1329949379.707482 515 504 601 398 385 436
20.001642 1329949379.716207 513 506 602 391 386 436
20.043808 1329949379.724091 513 507 604 384 386 436
20.043808 1329949379.732321 515 507 605 382 384 435
20.085682 1329949379.745057 516 508 606 385 383 436
20.085682 1329949379.749421 517 509 608 385 382 437
20.118773 1329949379.757572 518 509 609 380 382 434
20.118773 1329949379.765912 518 510 609 376 381 431
20.160005 1329949379.774431 518 510 608 374 377 428
20.160005 1329949379.782303 518 512 606 374 376 427
20.201577 1329949379.790251 517 513 607 373 376 423
20.201577 1329949379.799427 515 512 607 376 377 419
20.243634 1329949379.807653 515 510 606 382 377 419
20.243634 1329949379.815774 516 508 605 387 377 423
20.284659 1329949379.824433 518 509 605 389 381 423
20.284659 1329949379.832124 517 510 607 389 385 418
20.326330 1329949379.850064 519 508 607 386 384 414
20.326330 1329949379.867813 520 506 606 383 382 411
20.366182 1329949379.890343 521 505 605 382 382 410
20.366182 1329949379.893693 519 505 606 380 384 409
20.401703 1329949379.899279 520 504 607 382 385 409
20.401703 1329949379.907192 520 502 606 384 385 411
20.442954 1329949379.919823 522 500 604 389 385 411
20.442954 1329949379.924110 524 500 605 391 388 412
20.481173 1329949379.932222 524 500 606 394 390 413
20.481173 1329949379.940723 523 499 607 391 388 412
20.526103 1329949379.949218 524 498 606 384 386 412
20.526103 1329949379.956884 523 498 606 382 386 413
20.559740 1329949379.964779 524 497 606 380 386 413
20.559740 1329949379.978621 523 497 608 378 387 414
20.601330 1329949379.982154 523 498 607 373 384 414
20.601330 1329949379.990679 523 499 605 370 381 414
20.642685 1329949379.998781 523 498 604 371 382 415
20.642685 1329949380.006897 524 498 604 375 384 413
20.684362 1329949380.015454 523 498 605 377 385 415
20.684362 1329949380.023833 522 498 604 378 387 415
20.726412 1329949380.031962 522 499 605 380 386 416
20.726412 1329949380.040371 524 498 605 381 386 417
20.759479 1329949380.048760 525 498 606 384 385 415
20.759479 1329949380.056588 525 498 606 384 385 415
20.801029 1329949380.064883 525 498 605 382 384 415
20.801029 1329949380.073919 525 498 605 379 383 413
20.841967 1329949380.081762 524 500 606 373 383 412
20.841967 1329949380.090296 525 500 607 368 381 414
20.883736 1329949380.098835 524 502 607 363 380 412
20.883736 1329949380.106488 525 503 607 362 379 411
20.924789 1329949380.114885 524 505 608 361 375 407
20.924789 1329949380.136531 524 506 608 364 368 403
20.970590 1329949380.140060 523 507 608 367 365 401
20.970590 1329949380.148786 523 508 607 372 364 397
21.000039 1329949380.157029 521 508 606 374 366 392
21.000039 1329949380.165227 522 507 605 373 368 388
21.041948 1329949380.173520 521 506 605 371 370 385
21.041948 1329949380.181692 520 505 604 369 372 383
21.082945 1329949380.190148 519 504 604 368 374 382
21.082945 1329949380.198533 520 503 604 369 375 382
21.125181 1329949380.206880 520 502 605 373 375 381
21.125181 1329949380.214624 518 502 604 374 375 381
21.166459 1329949380.223448 521 501 603 370 378 382
21.166459 1329949380.231889 520 502 603 368 382 382
21.200119 1329949380.254173 521 502 604 371 383 380
21.200119 1329949380.268817 521 502 604 378 384 380
21.241513 1329949380.273677 522 503 604 383 384 380
21.241513 1329949380.281417 521 502 604 384 383 380
21.283320 1329949380.289757 522 502 604 381 382 379
21.283320 1329949380.298516 523 502 605 375 382 376
21.325108 1329949380.306519 523 501 607 374 381 374
21.325108 1329949380.315099 523 500 608 376 380 371
21.358009 1329949380.323336 522 498 608 380 377 370
21.358009 1329949380.331548 522 497 608 380 376 371
21.399852 1329949380.339845 523 496 607 381 376 373
21.399852 1329949380.352189 523 498 606 380 379 373
21.440784 1329949380.356469 522 498 607 377 379 372
21.440784 1329949380.364879 522 497 607 375 378 370
21.491979 1329949380.373292 521 496 607 373 377 368
21.491979 1329949380.381694 522 497 606 375 377 369
21.525186 1329949380.401218 523 497 606 376 379 370
21.525186 1329949380.406722 522 497 606 377 378 370
21.557853 1329949380.414814 524 496 606 376 376 369
21.557853 1329949380.423172 523 497 605 377 376 368
21.599883 1329949380.431542 522 496 605 375 376 369
21.599883 1329949380.439914 523 495 604 376 376 369
21.652436 1329949380.447574 524 495 605 378 379 369
21.652436 1329949380.456512 524 495 605 379 378 369
21.682742 1329949380.464593 523 495 604 380 376 369
21.682742 1329949380.473197 523 494 603 378 378 369
21.718107 1329949380.481646 523 493 603 377 379 369
21.718107 1329949380.489801 523 493 604 379 379 369
21.757762 1329949380.510967 523 493 604 380 380 370
21.757762 1329949380.514953 523 494 604 379 380 371
21.799279 1329949380.523042 523 493 605 378 379 371
21.799279 1329949380.531373 524 493 606 378 379 371
21.841008 1329949380.539850 524 492 606 378 378 371
21.841008 1329949380.548204 525 492 606 378 377 371
21.882848 1329949380.555683 524 492 605 378 377 372
21.882848 1329949380.564937 524 492 605 376 379 373
21.920158 1329949380.572887 524 492 605 375 378 373
21.920158 1329949380.581159 524 493 605 373 379 372
21.966041 1329949380.589959 524 492 605 373 378 372
21.966041 1329949380.597653 525 492 606 374 376 373
21.998723 1329949380.613286 524 492 604 375 378 374
21.998723 1329949380.629215 524 491 604 376 379 374
22.040860 1329949380.643240 525 492 604 376 379 375
22.040860 1329949380.647653 525 492 605 376 380 374
22.082080 1329949380.656126 525 493 606 375 379 373
22.082080 1329949380.664373 524 492 606 375 376 374
22.133160 1329949380.672080 525 492 605 374 376 374
22.133160 1329949380.680746 524 493 604 375 376 375
22.160461 1329949380.689303 524 493 605 375 376 374
22.160461 1329949380.697527 523 493 605 376 376 375
22.197865 1329949380.705873 523 493 604 377 376 375
22.197865 1329949380.714337 525 494 604 375 376 373
22.248724 1329949380.722015 524 494 604 373 376 373
22.248724 1329949380.730842 524 492 603 374 375 372
22.282358 1329949380.739012 525 492 604 374 377 374
22.282358 1329949380.747739 525 493 605 375 378 375
22.323624 1329949380.755561 524 494 606 374 380 374
22.323624 1329949380.764164 525 495 606 373 380 373
22.362604 1329949380.773979 525 495 607 372 378 370
22.362604 1329949380.780563 525 493 607 373 377 369
22.399009 1329949380.789426 525 492 608 374 375 368
22.399009 1329949380.797535 524 491 608 374 373 368
22.439886 1329949380.805939 524 490 607 374 371 370
22.439886 1329949380.814025 523 489 606 373 371 373
22.482164 1329949380.822700 523 489 606 374 371 375
22.482164 1329949380.830550 523 489 605 374 370 375
22.523508 1329949380.839135 523 491 603 373 370 377
22.523508 1329949380.847248 523 492 602 369 369 376
22.564798 1329949380.855787 523 493 602 368 370 376
22.564798 1329949380.864266 523 493 602 369 372 377
22.598835 1329949380.875187 522 493 602 369 374 375
22.598835 1329949380.880624 521 494 601 372 374 376
22.639548 1329949380.888989 521 494 602 376 376 378
22.639548 1329949380.897558 522 495 603 376 376 376
22.682030 1329949380.905604 521 495 603 375 376 375
22.682030 1329949380.914136 522 495 603 373 376 375
22.721624 1329949380.929164 522 495 603 371 378 374
22.721624 1329949380.941413 522 495 604 372 380 372
22.765622 1329949380.947400 523 496 605 375 378 371
22.806918 1329949380.955564 523 496 606 378 379 371
22.806918 1329949380.963782 523 496 606 377 379 371
22.839651 1329949380.977929 524 495 607 377 379 373
22.839651 1329949380.980609 524 494 608 379 377 372
22.882016 1329949380.988910 524 495 607 376 375 372
22.882016 1329949380.997192 523 495 607 376 373 370
22.922537 1329949381.005914 522 494 607 374 373 369
22.922537 1329949381.013741 522 493 606 374 372 368
22.960128 1329949381.022305 521 492 606 374 373 369
22.960128 1329949381.030806 520 491 605 375 375 371
23.006605 1329949381.042842 521 491 605 377 374 372
23.006605 1329949381.047331 521 492 606 377 372 374
23.040034 1329949381.055558 522 492 605 377 371 374
23.040034 1329949381.063908 521 493 604 374 373 373
23.081364 1329949381.072484 522 494 604 372 374 373
23.081364 1329949381.080566 521 493 604 371 374 370
23.125500 1329949381.096900 522 492 604 373 374 371
23.125500 1329949381.121019 522 492 604 376 374 371
23.166748 1329949381.134655 521 492 603 378 374 373
23.166748 1329949381.138920 523 492 603 379 375 372
23.206250 1329949381.147526 522 491 604 381 376 372
23.206250 1329949381.155274 522 491 604 385 378 372
23.239673 1329949381.163662 522 491 604 386 376 373
23.239673 1329949381.172074 522 492 604 387 375 373
23.281024 1329949381.180194 522 491 604 386 374 374
23.281024 1329949381.188652 523 491 603 388 374 373
23.322915 1329949381.197288 523 492 604 387 376 371
23.322915 1329949381.205350 523 491 604 386 375 372
23.366599 1329949381.213392 523 493 604 386 375 372
23.366599 1329949381.227681 523 494 605 389 376 373
23.406228 1329949381.259625 523 494 605 396 375 373
23.406228 1329949381.273042 523 496 605 403 374 374
23.439278 1329949381.280777 521 496 606 409 374 372
23.439278 1329949381.288564 521 499 605 413 373 371
23.480918 1329949381.296543 521 499 606 419 372 369
23.480918 1329949381.307573 521 497 606 423 370 364
23.532279 1329949381.313766 521 496 605 423 370 361
23.532279 1329949381.321974 522 496 604 420 369 357
23.564049 1329949381.330392 522 496 602 415 368 354
23.564049 1329949381.338756 522 495 601 410 369 347
23.605816 1329949381.346643 523 493 602 404 369 340
23.605816 1329949381.364351 524 493 601 398 370 336
23.655296 1329949381.378728 525 491 598 394 370 332
23.655296 1329949381.382096 526 489 597 395 373 327
23.681222 1329949381.388538 527 488 597 403 374 325
23.681222 1329949381.396712 527 486 597 411 373 324
23.722503 1329949381.405119 527 485 596 413 373 321
23.722503 1329949381.413659 527 486 596 415 374 320
23.769689 1329949381.431490 527 485 597 418 374 317
23.769689 1329949381.446687 530 482 597 419 376 314
23.806463 1329949381.468371 531 481 598 416 374 311
23.806463 1329949381.471313 531 480 598 409 372 307
23.839650 1329949381.480175 533 480 599 405 370 305
23.839650 1329949381.488416 534 476 601 404 371 301
23.880789 1329949381.496697 535 475 602 403 370 299
23.880789 1329949381.505214 536 473 602 400 369 295
23.922800 1329949381.513468 537 474 603 396 368 294
23.922800 1329949381.521327 538 471 605 398 367 293
23.964085 1329949381.530389 539 469 607 399 369 293
23.964085 1329949381.538416 540 470 609 399 366 292
24.006459 1329949381.546358 541 471 611 394 361 288
24.006459 1329949381.554989 542 467 614 392 358 285
24.039613 1329949381.563274 544 465 618 391 358 283
24.039613 1329949381.571437 545 468 620 384 350 279
24.080580 1329949381.579819 548 466 622 369 343 272
24.080580 1329949381.588438 550 463 624 359 339 266
24.126898 1329949381.596442 550 460 627 357 334 262
24.126898 1329949381.604938 551 459 628 355 327 260
24.164011 1329949381.613515 552 456 627 348 319 257
24.164011 1329949381.621357 552 454 628 340 315 258
24.205767 1329949381.629955 549 452 631 330 309 258
24.205767 1329949381.638093 548 450 632 324 300 258
24.238884 1329949381.646499 548 453 632 317 292 259
24.238884 1329949381.654869 547 459 633 303 285 256
24.283523 1329949381.670472 547 462 633 282 276 251
24.283523 1329949381.673483 544 464 630 264 269 248
24.322675 1329949381.679999 546 467 628 253 265 244
24.322675 1329949381.688343 540 468 626 251 261 240
24.364355 1329949381.696159 536 469 621 256 259 236
24.364355 1329949381.704911 535 468 613 265 253 236
24.405396 1329949381.712909 532 466 604 266 257 238
24.405396 1329949381.721796 527 461 599 269 265 240
24.439039 1329949381.729730 527 451 593 280 263 243
24.439039 1329949381.738199 528 441 585 289 260 253
24.481313 1329949381.746224 531 434 576 293 258 268
24.481313 1329949381.754864 528 431 570 287 265 281
24.523144 1329949381.775570 533 427 567 275 276 298
24.523144 1329949381.779596 531 423 566 271 291 319
24.566323 1329949381.788390 533 419 564 274 307 346
24.566323 1329949381.796197 539 414 562 284 322 378
24.597903 1329949381.804206 545 407 558 297 329 414
24.597903 1329949381.813120 546 397 554 302 332 453
24.638862 1329949381.830645 551 391 552 307 337 505
24.638862 1329949381.838109 560 392 550 304 339 563
24.680443 1329949381.846409 569 395 548 301 337 626
24.680443 1329949381.854904 588 413 549 310 338 695
24.721808 1329949381.862570 608 442 549 335 337 760
24.721808 1329949381.871465 648 478 557 371 342 822
24.774044 1329949381.879473 684 513 576 430 358 878
24.774044 1329949381.888129 749 556 597 499 384 938
24.811552 1329949381.896146 784 625 619 582 413 973
24.811552 1329949381.904547 785 667 648 647 441 911
24.858262 1329949381.912292 757 679 671 637 449 810
24.858262 1329949381.921457 714 669 688 567 436 708
24.879367 1329949381.929556 693 636 692 476 402 623
24.879367 1329949381.940495 660 609 682 379 377 553
24.925601 1329949381.946488 632 589 665 293 361 500
24.925601 1329949381.954592 612 582 647 240 344 470
24.962558 1329949381.962481 600 569 633 218 322 457
24.962558 1329949381.971362 593 555 624 227 302 460
25.008117 1329949381.979549 589 555 617 270 289 467
25.008117 1329949381.996247 580 563 611 325 291 462
25.039170 1329949381.999274 573 566 608 375 295 454
25.039170 1329949382.004471 567 560 603 406 293 443
25.087446 1329949382.012277 569 547 599 419 294 436
25.087446 1329949382.021425 562 540 596 431 308 431
25.120217 1329949382.029293 555 538 599 441 323 430
25.120217 1329949382.037581 550 535 603 446 329 424
25.162162 1329949382.052970 548 531 603 448 330 418
25.162162 1329949382.055957 545 525 603 443 335 410
25.203337 1329949382.062774 541 519 606 434 342 408
25.203337 1329949382.070870 540 515 611 421 336 411
25.245826 1329949382.079888 536 513 613 411 325 412
25.245826 1329949382.087549 533 511 611 410 319 410
25.286545 1329949382.095995 533 510 611 411 322 407
25.286545 1329949382.104414 529 509 611 410 321 404
25.319768 1329949382.112933 526 508 609 409 317 401
25.319768 1329949382.121242 524 507 607 406 316 395
25.361324 1329949382.129586 522 506 607 403 317 389
25.361324 1329949382.137852 519 504 606 399 319 385
25.402669 1329949382.146423 515 502 607 401 320 382
25.402669 1329949382.161088 515 499 604 403 320 380
25.444370 1329949382.176628 516 498 604 409 323 376
25.444370 1329949382.190274 511 498 605 415 323 373
25.486255 1329949382.196049 508 496 604 417 317 372
25.486255 1329949382.204545 510 493 603 415 316 371
25.519656 1329949382.212899 511 492 601 415 318 370
25.519656 1329949382.221342 509 493 599 415 322 372
25.561423 1329949382.229546 506 492 599 413 318 374
25.561423 1329949382.237780 506 491 598 412 312 376
25.602510 1329949382.246300 508 491 597 417 308 380
25.602510 1329949382.254531 509 494 596 427 304 384
25.643952 1329949382.262889 506 495 594 434 298 390
25.643952 1329949382.271228 506 497 591 446 290 399
25.686022 1329949382.279651 508 501 587 463 283 406
25.686022 1329949382.287739 515 509 585 483 275 414
25.719290 1329949382.295870 516 514 580 498 263 414
25.719290 1329949382.304370 522 519 574 502 260 407
25.769794 1329949382.312581 519 526 568 490 262 398
25.769794 1329949382.323894 524 535 564 466 271 381
25.804865 1329949382.329509 527 544 562 440 282 354
25.804865 1329949382.337812 529 555 561 405 295 318
25.844449 1329949382.345785 531 565 558 367 310 272
25.844449 1329949382.354476 517 562 555 325 327 217
25.885366 1329949382.362651 555 572 552 290 347 173
25.885366 1329949382.378227 557 578 550 264 385 106
25.920301 1329949382.381490 576 571 556 241 427 38
25.920301 1329949382.387543 603 553 579 219 468 4
25.962031 1329949382.395626 636 519 608 198 492 4
25.962031 1329949382.404389 691 472 639 206 510 4
26.009714 1329949382.412689 751 427 671 221 534 4
26.009714 1329949382.420834 794 362 706 215 532 4
26.045438 1329949382.429650 792 321 734 230 477 4
26.045438 1329949382.437562 754 298 736 265 400 4
26.078637 1329949382.445870 723 287 721 287 337 34
26.078637 1329949382.454493 677 300 703 308 287 129
26.120465 1329949382.462818 635 329 680 327 254 202
26.120465 1329949382.471297 599 367 654 342 234 262
26.162334 1329949382.479475 572 403 629 337 228 310
26.162334 1329949382.487391 559 431 612 329 235 342
26.203458 1329949382.495958 554 449 599 336 250 360
26.203458 1329949382.504362 553 458 589 347 270 367
26.245107 1329949382.512879 548 463 585 359 291 369
26.245107 1329949382.534848 539 466 584 372 309 373
26.280392 1329949382.538365 531 470 584 384 319 377
26.280392 1329949382.555231 527 474 582 393 330 379
26.320547 1329949382.579501 526 475 581 397 341 383
26.320547 1329949382.587891 523 476 583 400 354 389
26.362220 1329949382.595864 519 476 584 399 360 396
26.362220 1329949382.604583 517 479 585 399 360 406
26.403452 1329949382.624847 517 481 584 398 362 410
26.403452 1329949382.629123 519 484 586 397 370 416
26.441107 1329949382.637690 519 486 588 392 379 422
26.441107 1329949382.645987 520 489 590 383 382 423
26.478779 1329949382.654233 520 491 591 375 380 421
26.478779 1329949382.662696 520 492 590 371 379 420
26.520300 1329949382.670707 519 493 592 370 378 423
26.520300 1329949382.678940 521 495 593 371 374 424
26.561848 1329949382.687307 523 496 594 373 376 423
26.561848 1329949382.695634 523 497 595 373 381 424
26.603514 1329949382.703888 523 498 598 372 386 425
26.603514 1329949382.712647 522 499 599 368 388 424
26.657751 1329949382.720875 523 499 600 365 386 424
26.657751 1329949382.728979 523 499 602 367 384 423
26.678475 1329949382.737561 524 500 603 372 385 426
26.678475 1329949382.745755 527 502 603 376 388 426
26.720571 1329949382.754043 527 504 605 377 387 425
26.720571 1329949382.762486 527 503 605 377 386 424
26.761601 1329949382.770935 528 502 605 381 383 425
26.761601 1329949382.778614 527 502 606 380 386 428
26.804624 1329949382.787285 529 504 605 377 386 429
26.804624 1329949382.795776 531 505 605 376 384 427
26.844844 1329949382.804089 529 505 604 375 388 424
26.844844 1329949382.812552 528 504 606 374 389 422
26.878388 1329949382.824345 527 505 607 371 389 419
26.878388 1329949382.829031 528 507 607 371 387 416
26.919774 1329949382.837611 528 507 607 372 386 414
26.919774 1329949382.845877 527 505 608 373 388 412
26.960952 1329949382.854335 527 503 608 374 388 412
26.960952 1329949382.862806 527 505 607 374 383 410
27.002918 1329949382.874134 525 506 606 376 382 409
27.002918 1329949382.879278 525 503 607 377 384 409
27.044539 1329949382.887958 526 501 607 375 385 409
27.044539 1329949382.896064 526 503 607 372 385 411
27.078025 1329949382.904154 527 506 606 371 383 409
27.078025 1329949382.912363 528 508 605 368 382 405
27.126208 1329949382.920595 527 506 605 365 380 402
27.126208 1329949382.929113 528 504 605 363 376 401
27.161077 1329949382.937241 528 503 605 365 373 399
27.161077 1329949382.945967 529 504 604 373 371 397
27.202807 1329949382.954056 528 505 605 381 374 396
27.202807 1329949382.962663 526 506 605 382 374 395
27.244430 1329949382.984352 525 505 604 378 374 395
27.244430 1329949382.987986 526 503 604 374 377 396
27.277613 1329949382.995941 526 503 606 372 380 395
27.277613 1329949383.004140 525 502 607 371 380 396
27.319257 1329949383.012934 526 503 608 372 377 399
27.319257 1329949383.021411 525 504 608 376 377 399
27.360815 1329949383.029519 526 507 608 378 376 399
27.360815 1329949383.038132 526 508 609 379 375 395
27.402180 1329949383.046173 526 508 609 378 372 390
27.402180 1329949383.054240 527 507 608 376 374 386
27.444098 1329949383.062554 526 505 608 377 375 382
27.444098 1329949383.070829 526 503 608 377 377 379
27.480260 1329949383.093067 526 502 607 375 373 379
27.480260 1329949383.096547 526 502 609 374 371 379
27.518867 1329949383.103912 525 500 608 375 368 378
27.518867 1329949383.112033 524 499 607 376 366 378
27.570061 1329949383.120775 524 499 607 375 363 380
27.570061 1329949383.129102 523 499 606 375 360 380
27.609188 1329949383.137107 522 498 604 377 361 379
27.609188 1329949383.145627 521 498 604 377 364 377
27.643962 1329949383.153747 520 498 603 376 366 378
27.643962 1329949383.162502 519 497 603 373 368 378
27.687959 1329949383.170612 519 497 602 371 370 380
27.687959 1329949383.178759 519 498 602 373 372 377
27.718301 1329949383.187005 520 499 601 370 373 377
27.718301 1329949383.195458 521 500 601 368 376 377
27.765504 1329949383.202966 521 500 603 372 378 375
27.765504 1329949383.211451 521 499 604 377 379 373
27.801619 1329949383.220083 521 498 604 379 377 373
27.801619 1329949383.228442 521 497 603 381 379 374
27.857621 1329949383.242795 522 498 604 377 380 375
27.857621 1329949383.248001 522 498 604 374 382 374
27.884967 1329949383.253407 522 498 605 373 381 373
27.884967 1329949383.261627 522 496 605 373 379 371
27.918015 1329949383.270383 522 496 605 374 378 372
27.918015 1329949383.278744 522 497 605 374 380 374
27.959965 1329949383.286811 521 497 605 377 380 373
27.959965 1329949383.295568 521 496 605 376 381 372
28.010094 1329949383.303404 522 495 606 375 380 371
28.010094 1329949383.311667 522 494 606 377 378 371
28.042914 1329949383.320015 523 495 606 378 379 372
28.042914 1329949383.328428 523 495 606 377 378 372
28.078443 1329949383.336891 523 495 606 375 378 371
28.078443 1329949383.347254 523 496 606 374 379 372
28.128139 1329949383.353184 523 495 606 373 378 372
28.128139 1329949383.361145 524 495 606 374 377 372
28.159506 1329949383.369799 524 495 606 375 377 373
28.159506 1329949383.377726 523 496 605 375 376 373
28.201370 1329949383.386244 523 496 604 374 377 373
28.201370 1329949383.402197 523 496 604 373 378 373
28.242986 1329949383.404857 524 495 603 375 379 373
28.242986 1329949383.410932 523 495 604 375 380 373
28.284419 1329949383.419342 523 496 604 376 380 372
28.284419 1329949383.428016 523 495 604 378 380 372
28.317750 1329949383.435791 525 495 604 379 378 373
28.317750 1329949383.444385 525 495 603 378 378 373
28.359301 1329949383.455472 524 495 604 379 380 373
28.359301 1329949383.460657 524 495 604 379 381 372
28.401257 1329949383.469147 525 495 605 379 381 372
28.401257 1329949383.477257 525 494 605 379 381 372
28.441873 1329949383.485334 525 493 605 378 379 371
28.441873 1329949383.493924 525 494 606 379 379 371
28.484137 1329949383.502207 525 493 606 378 381 372
28.484137 1329949383.510371 526 493 606 381 378 373
28.517858 1329949383.518695 525 493 606 383 377 374
28.517858 1329949383.527237 526 494 606 383 377 373
28.559326 1329949383.535010 525 494 605 380 378 373
28.559326 1329949383.543793 525 494 605 377 378 371
28.610029 1329949383.551671 525 494 605 376 377 371
28.610029 1329949383.560455 526 495 605 377 377 371
28.642306 1329949383.569951 525 495 604 377 377 370
28.642306 1329949383.577067 525 494 605 378 377 368
28.684207 1329949383.584936 525 495 605 381 376 369
28.684207 1329949383.593802 525 496 604 384 376 369
28.717891 1329949383.611972 525 496 603 382 376 369
28.717891 1329949383.619015 526 495 603 379 378 367
28.763112 1329949383.627210 526 495 603 379 380 367
28.763112 1329949383.635176 526 496 604 381 379 366
28.800774 1329949383.643335 527 496 604 385 378 366
28.800774 1329949383.651702 526 497 603 385 376 366
28.850892 1329949383.674962 525 497 603 385 376 364
28.850892 1329949383.688315 526 498 602 385 378 362
28.884553 1329949383.693676 526 500 603 388 379 361
28.884553 1329949383.701784 527 499 602 393 379 359
28.917703 1329949383.710217 527 497 601 396 379 357
28.917703 1329949383.718300 526 498 601 401 380 354
28.959505 1329949383.726521 526 497 601 406 381 352
28.959505 1329949383.735748 526 496 601 414 382 353
29.001230 1329949383.743202 525 496 601 417 383 352
29.001230 1329949383.751595 526 496 601 420 383 350
29.042719 1329949383.760243 527 495 601 423 381 347
29.042719 1329949383.768590 530 494 601 426 383 344
29.079459 1329949383.776700 529 491 601 426 382 339
29.079459 1329949383.786221 529 489 602 422 382 337
29.117896 1329949383.793322 529 490 602 419 381 336
29.117896 1329949383.801673 530 490 602 417 380 333
29.167289 1329949383.810016 530 489 602 416 377 329
29.167289 1329949383.820158 533 488 602 411 375 323
29.206353 1329949383.826308 533 486 601 408 374 319
29.206353 1329949383.836870 533 486 601 407 374 318
29.242618 1329949383.848473 532 485 602 409 374 316
29.242618 1329949383.853357 534 484 602 408 376 314
29.295973 1329949383.859872 536 484 603 402 374 310
29.295973 1329949383.868141 538 484 604 401 372 308
29.317454 1329949383.876512 539 485 605 401 368 305
29.317454 1329949383.884769 539 484 605 402 368 303
29.358828 1329949383.895654 541 484 605 400 365 301
29.358828 1329949383.901395 542 484 606 399 364 297
29.400678 1329949383.909670 541 486 607 403 362 294
29.400678 1329949383.917881 543 485 609 406 359 290
29.442561 1329949383.926277 544 486 609 401 358 287
29.442561 1329949383.934877 547 487 609 393 357 279
29.484078 1329949383.953858 551 481 612 384 357 271
29.484078 1329949383.959874 552 473 616 383 354 266
29.525436 1329949383.967997 554 471 618 386 350 266
29.525436 1329949383.976649 554 471 619 388 343 265
29.570288 1329949383.984265 555 471 619 383 337 266
29.570288 1329949383.992614 557 466 621 370 333 262
29.600970 1329949384.001199 561 462 625 362 331 260
29.600970 1329949384.020536 561 460 626 360 325 259
29.642381 1329949384.026772 560 458 626 358 321 259
29.642381 1329949384.034472 561 455 629 359 314 259
29.691903 1329949384.042588 560 453 629 354 303 262
29.691903 1329949384.051300 558 450 627 344 294 265
29.731569 1329949384.059703 561 445 629 338 293 268
29.731569 1329949384.087856 561 441 633 340 287 271
29.759468 1329949384.101130 559 441 634 335 275 276
29.759468 1329949384.113138 556 446 634 323 261 280
29.800531 1329949384.119686 550 449 632 310 250 283
29.800531 1329949384.126634 547 451 628 297 237 286
29.841876 1329949384.136805 542 453 621 283 227 290
29.841876 1329949384.143008 535 456 611 264 224 292
29.883821 1329949384.154270 532 457 601 249 230 292
29.883821 1329949384.160143 526 453 593 234 240 291
29.918345 1329949384.168392 520 448 586 225 249 297
29.918345 1329949384.176890 518 444 579 230 254 310
29.959354 1329949384.184848 511 442 570 248 260 324
29.959354 1329949384.192831 516 440 560 269 259 343
30.002640 1329949384.201523 517 438 549 281 261 360
30.002640 1329949384.210347 518 433 540 285 269 378
30.042581 1329949384.217814 520 428 534 283 286 402
30.042581 1329949384.227298 527 422 529 285 307 427
30.084008 1329949384.235354 535 416 526 294 331 456
30.084008 1329949384.244368 544 405 525 304 356 486
30.124707 1329949384.256124 561 398 531 317 376 522
30.124707 1329949384.260487 577 392 541 348 391 564
30.158163 1329949384.268890 595 392 558 397 404 620
30.158163 1329949384.277758 615 407 573 445 411 691
30.200026 1329949384.286069 639 444 593 486 425 770
30.200026 1329949384.294568 686 482 615 526 452 844
30.241308 1329949384.311917 739 532 638 550 488 907
30.241308 1329949384.327002 795 595 664 536 508 939
30.282992 1329949384.330094 804 647 690 484 477 893
30.282992 1329949384.336235 777 666 706 436 412 803
30.324775 1329949384.344297 738 673 705 404 353 724
30.324775 1329949384.353222 701 672 697 377 300 656
30.357688 1329949384.361355 663 652 682 350 267 593
30.357688 1329949384.374971 631 634 658 334 248 546
30.398759 1329949384.378112 605 619 633 329 246 511
30.398759 1329949384.386126 584 595 616 331 257 486
30.440327 1329949384.394323 567 575 607 351 269 472
30.440327 1329949384.402977 555 566 600 377 287 464
30.481974 1329949384.411069 553 563 595 392 307 461
30.481974 1329949384.419639 541 555 592 394 320 453
30.523364 1329949384.432616 536 548 592 389 331 446
30.523364 1329949384.436573 531 543 593 386 346 441
30.575030 1329949384.444644 531 543 599 389 357 434
30.575030 1329949384.452822 528 539 602 399 361 426
30.606417 1329949384.461475 530 531 606 410 361 417
30.606417 1329949384.469287 531 526 609 421 360 415
30.639595 1329949384.477454 531 527 611 433 352 416
30.639595 1329949384.486318 528 527 613 440 347 417
30.680824 1329949384.494577 524 525 613 447 339 415
30.680824 1329949384.502793 524 520 611 446 333 408
30.722665 1329949384.511228 523 516 608 439 334 402
30.722665 1329949384.519541 521 510 608 432 336 399
30.759233 1329949384.530496 518 505 607 423 336 396
30.759233 1329949384.536174 512 502 606 416 334 394
30.806074 1329949384.544385 514 500 604 406 335 393
30.806074 1329949384.552775 513 496 603 396 342 391
30.847869 1329949384.561322 508 493 603 392 345 391
30.847869 1329949384.568740 507 492 603 389 344 391
30.880836 1329949384.578250 505 494 602 385 342 391
30.880836 1329949384.585886 505 495 602 383 342 389
30.927440 1329949384.594084 503 496 601 383 342 389
30.927440 1329949384.602816 500 496 600 385 341 388
30.969077 1329949384.610907 499 497 598 390 342 387
30.969077 1329949384.619252 500 497 598 397 345 384
31.005325 1329949384.627344 499 495 599 401 348 382
31.005325 1329949384.636020 497 493 599 401 348 379
31.038836 1329949384.644593 497 491 600 394 345 376
31.038836 1329949384.652797 496 490 598 388 345 374
31.080629 1329949384.661156 493 489 598 386 347 372
31.080629 1329949384.669191 493 488 598 385 350 372
31.122506 1329949384.677245 494 486 600 389 350 371
31.122506 1329949384.686132 491 485 600 392 350 372
31.163747 1329949384.694236 492 485 599 392 347 373
31.163747 1329949384.702419 492 485 599 388 349 373
31.205132 1329949384.711117 491 485 600 385 348 373
31.205132 1329949384.718884 489 487 601 385 346 373
31.238603 1329949384.727746 490 490 601 387 345 375
31.238603 1329949384.736049 491 493 602 388 345 377
31.283331 1329949384.744297 491 497 604 390 343 378
31.283331 1329949384.752668 489 501 605 396 340 378
31.333176 1329949384.760992 491 506 603 399 335 379
31.333176 1329949384.778934 497 512 601 402 334 380
31.363463 1329949384.786319 503 517 599 405 332 377
31.363463 1329949384.794360 509 523 597 405 329 369
31.398785 1329949384.802618 516 529 594 412 324 361
31.398785 1329949384.811088 523 536 589 427 319 357
31.441489 1329949384.819345 529 542 584 443 315 351
31.441489 1329949384.848439 538 547 577 456 312 340
31.480427 1329949384.863884 548 553 570 455 309 324
31.480427 1329949384.869377 558 559 565 445 305 300
31.524634 1329949384.877467 567 563 562 429 303 266
31.524634 1329949384.885923 576 570 561 411 307 224
31.565216 1329949384.894373 581 577 562 391 316 175
31.565216 1329949384.902450 584 580 563 366 327 112
31.613563 1329949384.920479 600 582 564 333 346 31
31.613563 1329949384.927610 611 571 569 289 371 4
31.637931 1329949384.936220 660 535 585 233 400 3
31.637931 1329949384.944256 743 478 608 149 442 4
31.695297 1329949384.952392 841 411 651 60 515 4
31.695297 1329949384.960527 911 365 714 27 590 4
31.722786 1329949384.980502 904 311 769 68 590 4
31.722786 1329949384.985814 826 274 794 192 497 4
31.771935 1329949384.994035 757 275 778 331 384 31
31.771935 1329949385.002257 689 305 746 429 307 146
31.798542 1329949385.010666 636 336 709 472 251 242
31.798542 1329949385.018973 597 379 671 450 207 308
31.839995 1329949385.027095 582 416 635 388 186 346
31.839995 1329949385.035593 577 438 610 331 181 366
31.881409 1329949385.043844 573 450 594 308 195 374
31.881409 1329949385.052450 566 453 583 311 217 377
31.923596 1329949385.060592 558 456 575 326 243 382
31.923596 1329949385.068938 546 466 572 350 269 391
31.965180 1329949385.077113 537 477 572 380 288 402
31.965180 1329949385.098923 525 483 571 409 303 410
32.003357 1329949385.111869 520 485 569 431 320 415
32.003357 1329949385.119130 518 487 567 439 339 417
32.040082 1329949385.127322 516 487 569 432 357 419
32.040082 1329949385.135426 514 485 574 421 372 419
32.081515 1329949385.143773 512 482 579 415 381 423
32.081515 1329949385.152188 510 483 582 412 385 430
32.122997 1329949385.160399 513 488 586 410 389 436
32.122997 1329949385.168854 517 490 590 409 389 437
32.164191 1329949385.177221 517 488 593 408 389 441
32.164191 1329949385.185160 519 486 593 406 389 448
32.219325 1329949385.193509 523 487 593 406 394 455
32.219325 1329949385.202072 523 491 595 403 398 458
32.242657 1329949385.210449 520 493 598 396 398 462
32.242657 1329949385.218702 517 495 601 386 394 467
32.281289 1329949385.227067 524 497 601 375 395 471
32.281289 1329949385.235185 527 499 602 374 397 472
32.322816 1329949385.243753 527 503 606 377 400 470
32.322816 1329949385.251927 524 504 608 379 398 467
32.370256 1329949385.260118 526 504 609 377 393 462
32.370256 1329949385.268350 525 506 608 375 389 456
32.397739 1329949385.276918 519 508 608 378 390 452
32.397739 1329949385.285089 521 503 609 387 391 452
32.439502 1329949385.306920 524 499 608 391 392 454
32.439502 1329949385.310554 525 502 606 390 393 454
32.488515 1329949385.318329 523 507 606 389 391 452
32.488515 1329949385.326673 524 508 608 390 393 448
32.522905 1329949385.335132 525 506 609 392 393 443
32.522905 1329949385.343635 527 505 609 390 391 439
32.564629 1329949385.351767 528 505 607 390 388 435
32.564629 1329949385.360109 527 504 606 389 387 428
32.597303 1329949385.368107 525 503 607 388 390 424
32.597303 1329949385.376573 524 503 607 381 389 419
32.639161 1329949385.385076 524 502 606 374 387 416
32.639161 1329949385.393311 525 498 607 371 386 414
32.686920 1329949385.405240 525 495 608 374 387 412
32.686920 1329949385.409911 526 496 611 374 389 414
32.722293 1329949385.418252 525 499 612 374 385 417
32.722293 1329949385.426723 524 503 610 371 380 419
32.763888 1329949385.435114 525 505 609 371 376 417
32.763888 1329949385.443322 526 506 609 372 373 411
32.805656 1329949385.471758 525 505 608 374 371 404
32.805656 1329949385.496205 523 503 607 378 370 397
32.847370 1329949385.511372 522 500 607 382 371 392
32.847370 1329949385.517984 521 499 605 388 371 389
32.880324 1329949385.526218 519 498 604 387 374 388
32.880324 1329949385.534616 519 496 602 380 374 385
32.918980 1329949385.542680 520 493 602 372 375 386
32.918980 1329949385.554271 520 493 603 368 377 385
32.963065 1329949385.559611 520 495 603 368 376 385
32.963065 1329949385.567937 520 495 603 369 378 382
33.002869 1329949385.576709 520 495 602 367 378 382
33.002869 1329949385.584660 521 496 603 364 379 384
33.038498 1329949385.592659 522 496 603 366 380 382
33.038498 1329949385.601928 521 497 605 371 382 380
33.079821 1329949385.609883 521 496 605 377 384 376
33.079821 1329949385.617923 521 495 606 379 385 375
33.121457 1329949385.626638 520 494 605 377 384 376
33.121457 1329949385.634695 521 493 607 376 384 376
33.163640 1329949385.642476 522 493 607 375 385 374
33.163640 1329949385.654258 523 492 608 373 385 372
33.205238 1329949385.659772 522 491 609 371 381 372
33.205238 1329949385.668085 520 491 609 373 378 372
33.247667 1329949385.676319 520 491 608 373 377 373
33.247667 1329949385.684932 521 491 607 375 375 373
33.279813 1329949385.692621 522 490 607 375 375 373
33.279813 1329949385.711053 522 490 607 372 372 371
33.321744 1329949385.733141 521 490 606 372 371 371
33.321744 1329949385.736318 523 490 605 372 373 371
33.363455 1329949385.742903 521 489 605 373 375 372
33.363455 1329949385.750502 521 488 604 373 372 373
33.404894 1329949385.759273 522 487 603 373 372 374
33.404894 1329949385.785683 521 489 603 373 373 375
33.438170 1329949385.809338 523 491 603 374 374 375
33.438170 1329949385.824133 521 491 603 372 376 374
33.479691 1329949385.827379 521 489 603 373 376 372
33.479691 1329949385.833632 520 488 604 375 375 372
33.521720 1329949385.842276 521 490 604 378 376 373
33.521720 1329949385.850793 520 491 604 378 377 372
33.567103 1329949385.858875 521 490 604 375 379 372
33.567103 1329949385.867472 522 490 605 374 379 371
33.604794 1329949385.875665 521 491 605 375 378 370
33.604794 1329949385.883392 522 490 605 377 376 370
33.637933 1329949385.892354 522 489 604 376 374 370
33.637933 1329949385.903180 522 488 604 375 376 371
33.691549 1329949385.908821 522 488 604 376 378 371
33.691549 1329949385.917366 522 488 604 376 377 371
33.720686 1329949385.925955 521 488 603 374 378 371
33.720686 1329949385.933618 522 488 604 375 379 371
33.762844 1329949385.942056 522 488 603 375 379 371
33.762844 1329949385.954174 522 489 604 376 380 371
33.804446 1329949385.958773 522 489 605 376 380 370
33.804446 1329949385.967537 523 488 604 377 378 371
33.837574 1329949385.975824 524 488 604 375 376 371
33.837574 1329949385.983518 524 488 604 374 377 370
33.879455 1329949385.992188 523 488 604 375 378 371
33.879455 1329949386.000708 522 489 604 376 379 373
33.921301 1329949386.008721 522 489 604 376 378 372
33.921301 1329949386.017603 522 488 604 376 377 372
33.962238 1329949386.025929 522 488 605 375 377 372
33.962238 1329949386.033251 522 489 605 374 378 371
34.004028 1329949386.042142 523 489 605 374 379 372
34.004028 1329949386.061444 522 488 604 373 377 370
34.044459 1329949386.067305 523 487 604 372 378 369
34.044459 1329949386.075603 523 488 604 372 379 371
34.078903 1329949386.083807 523 489 605 374 378 372
34.078903 1329949386.092026 524 489 605 376 377 371
34.120344 1329949386.100654 524 489 605 376 376 371
34.120344 1329949386.117057 524 487 604 375 377 370
34.162378 1329949386.129314 524 487 604 374 377 370
34.162378 1329949386.133645 523 488 604 375 377 371
34.203629 1329949386.142286 523 488 605 373 377 371
34.203629 1329949386.149937 523 488 605 374 375 371
34.245322 1329949386.158727 523 488 605 373 376 372
34.245322 1329949386.167014 523 489 604 373 377 371
34.278848 1329949386.175377 523 488 604 373 377 370
34.278848 1329949386.183835 523 488 605 374 377 370
34.320028 1329949386.192140 524 488 605 375 378 369
34.320028 1329949386.200255 523 488 605 375 377 371
34.372988 1329949386.208590 524 487 604 376 376 371
34.372988 1329949386.216832 524 487 604 374 376 371
34.403821 1329949386.227302 525 487 604 374 377 371
34.403821 1329949386.233474 524 488 605 372 375 371
34.440870 1329949386.241952 523 488 604 372 375 371
34.440870 1329949386.249697 523 488 603 372 375 371
34.478168 1329949386.258594 523 488 603 372 375 370
34.478168 1329949386.266838 523 489 604 371 378 370
34.519948 1329949386.283726 523 488 604 372 377 371
34.519948 1329949386.298572 523 488 604 372 378 371
34.561580 1329949386.301870 523 489 604 373 376 371
34.561580 1329949386.307994 523 489 604 372 376 371
34.606516 1329949386.316565 523 489 604 372 377 370
34.606516 1329949386.325233 524 489 604 374 377 371
34.644507 1329949386.333455 523 489 603 375 377 372
34.644507 1329949386.349817 523 489 604 376 377 372
34.678174 1329949386.355905 523 489 604 374 377 370
34.678174 1329949386.358980 523 489 604 374 378 370
34.719813 1329949386.366788 523 489 605 372 377 370
34.719813 1329949386.375018 524 488 605 371 378 370
34.761545 1329949386.383570 523 489 605 372 377 370
34.761545 1329949386.390935 523 489 605 373 376 371
34.803571 1329949386.407445 523 490 605 375 376 371
34.803571 1329949386.410352 523 490 605 375 376 372
34.844378 1329949386.416786 524 490 604 374 376 371
34.844378 1329949386.425148 524 491 605 375 376 372
34.878006 1329949386.433314 523 491 605 375 376 370
34.878006 1329949386.441067 523 490 604 376 376 369
34.919913 1329949386.450103 524 490 604 376 376 371
34.919913 1329949386.458428 524 490 604 377 376 369
34.960997 1329949386.466992 523 490 604 378 375 369
34.960997 1329949386.475027 523 490 605 379 376 370
35.003313 1329949386.483121 522 489 605 381 376 370
35.003313 1329949386.491276 523 489 604 382 376 371
35.044224 1329949386.500025 521 490 605 381 375 372
35.044224 1329949386.510777 520 491 605 385 374 374
35.077994 1329949386.516452 519 493 605 386 375 375
35.077994 1329949386.525064 521 496 605 388 374 377
35.119702 1329949386.533083 522 497 605 390 376 374
35.119702 1329949386.541240 522 497 604 396 376 370
35.161392 1329949386.549774 522 497 604 403 376 366
35.161392 1329949386.565102 521 497 602 410 375 366
35.203173 1329949386.589206 521 498 601 416 378 364
35.203173 1329949386.601415 521 499 600 419 381 362
35.243440 1329949386.608200 522 500 599 423 381 358
35.243440 1329949386.616185 522 500 598 427 381 352
35.279919 1329949386.624820 522 498 597 432 380 347
35.279919 1329949386.633275 524 495 595 435 379 342
35.320613 1329949386.641482 525 492 594 435 381 338
35.320613 1329949386.649861 525 491 594 436 383 337
35.368907 1329949386.657807 523 489 593 438 384 336
35.368907 1329949386.666238 528 489 593 438 384 333
35.403017 1329949386.674641 529 485 597 436 384 329
35.403017 1329949386.683067 529 482 599 433 383 325
35.444490 1329949386.691536 532 483 601 430 383 319
35.444490 1329949386.699612 534 483 603 422 381 315
35.478438 1329949386.708007 537 478 603 412 373 308
35.478438 1329949386.716009 540 475 606 404 370 303
35.519632 1329949386.724762 542 475 606 399 369 300
35.519632 1329949386.732737 546 474 607 393 367 296
35.560914 1329949386.741219 547 471 607 386 363 290
35.560914 1329949386.749662 548 469 608 383 361 287
35.602535 1329949386.757723 549 468 608 387 357 287
35.602535 1329949386.766207 551 467 607 388 355 288
35.644386 1329949386.774664 552 465 607 384 351 288
35.644386 1329949386.783045 552 464 607 376 348 285
35.678115 1329949386.790922 553 464 609 373 346 285
35.678115 1329949386.799711 551 463 610 372 344 283
35.719059 1329949386.807785 552 463 610 370 342 284
35.719059 1329949386.816306 554 462 612 366 341 283
35.761007 1329949386.824405 554 463 613 363 341 278
35.761007 1329949386.832897 553 462 615 364 339 277
35.802673 1329949386.840790 554 459 616 366 337 276
35.802673 1329949386.849651 555 457 619 367 335 277
35.846351 1329949386.858013 554 457 621 361 329 274
35.846351 1329949386.866010 557 457 623 349 323 273
35.877518 1329949386.874584 557 456 627 339 317 271
35.877518 1329949386.885504 558 455 630 332 307 270
35.924264 1329949386.891373 559 456 631 323 297 266
35.924264 1329949386.899500 559 457 632 314 286 262
35.961078 1329949386.907592 558 455 630 299 276 256
35.961078 1329949386.915923 556 453 626 283 269 255
35.999520 1329949386.924556 552 451 619 274 262 252
35.999520 1329949386.939922 552 453 611 268 260 249
36.044170 1329949386.954534 549 453 603 265 266 245
36.044170 1329949386.957841 544 450 598 269 272 245
36.077353 1329949386.965976 540 445 595 281 273 251
36.077353 1329949386.974051 533 440 591 296 272 268
36.119284 1329949386.982751 529 436 587 308 271 286
36.119284 1329949386.991176 527 431 581 314 271 303
36.161222 1329949387.007605 523 427 577 314 269 319
36.161222 1329949387.020236 521 425 571 304 266 337
36.207979 1329949387.026404 524 422 566 293 266 358
36.207979 1329949387.032229 528 418 558 287 270 383
36.244436 1329949387.041001 531 413 550 286 278 407
36.244436 1329949387.049513 534 405 544 286 290 435
36.277566 1329949387.057609 541 391 539 292 301 468
36.277566 1329949387.074120 545 378 533 302 309 512
36.318393 1329949387.077197 549 360 529 302 321 570
36.318393 1329949387.082383 571 344 531 315 339 658
36.366545 1329949387.091108 618 355 545 373 369 769
36.366545 1329949387.099239 676 413 564 473 429 882
36.402365 1329949387.107942 761 500 596 549 488 973
36.402365 1329949387.116090 827 569 639 594 530 1015
36.443786 1329949387.124357 833 626 684 589 529 944
36.443786 1329949387.132467 797 644 710 520 485 830
36.484451 1329949387.141448 761 644 712 403 423 729
36.484451 1329949387.149298 706 641 701 290 351 636
36.517424 1329949387.157815 667 624 672 221 298 571
36.517424 1329949387.166211 637 610 641 204 274 533
36.559216 1329949387.174587 614 598 617 226 273 515
36.559216 1329949387.182403 599 596 601 272 285 508
36.601089 1329949387.191124 587 596 591 323 298 499
36.601089 1329949387.199091 577 592 584 367 311 487
36.646355 1329949387.207654 568 587 582 399 331 477
36.646355 1329949387.215838 561 582 585 422 352 466
36.697872 1329949387.229306 553 575 592 433 366 455
36.697872 1329949387.232522 553 566 598 432 370 442
36.725434 1329949387.241023 550 560 602 425 369 429
36.725434 1329949387.249552 547 553 605 417 362 423
36.758247 1329949387.257862 549 545 606 408 354 421
36.758247 1329949387.265939 549 538 605 403 348 421
36.800527 1329949387.274661 546 534 604 404 345 418
36.800527 1329949387.282402 546 527 603 407 346 414
36.850540 1329949387.290654 543 523 603 414 351 412
36.850540 1329949387.299003 540 523 603 421 354 411
36.885451 1329949387.307709 538 518 606 423 351 407
36.885451 1329949387.315623 536 511 607 423 350 403
36.919326 1329949387.327071 535 507 608 427 350 398
36.919326 1329949387.332347 532 506 610 423 350 395
36.965686 1329949387.340674 531 504 612 415 346 394
36.965686 1329949387.349623 530 500 612 409 344 393
36.999862 1329949387.357325 529 496 612 407 343 393
36.999862 1329949387.365838 526 496 612 407 344 394
37.041278 1329949387.378643 527 496 611 404 341 392
37.041278 1329949387.384556 527 494 611 400 338 392
37.087628 1329949387.390603 527 490 611 399 337 391
37.087628 1329949387.399100 525 490 613 401 335 395
37.124796 1329949387.408832 522 490 614 404 331 396
37.124796 1329949387.415446 522 488 613 406 326 396
37.158333 1329949387.424287 522 487 612 407 323 396
37.158333 1329949387.432694 522 487 610 408 326 394
37.199749 1329949387.440706 519 486 610 412 324 394
37.199749 1329949387.449412 515 484 611 420 319 397
37.245104 1329949387.457780 515 483 609 430 315 399
37.245104 1329949387.465509 516 482 607 437 313 403
37.282723 1329949387.474393 513 483 605 441 312 405
37.282723 1329949387.484685 509 485 602 437 308 405
37.324624 1329949387.490523 509 485 599 423 309 403
37.324624 1329949387.498942 507 484 596 411 311 400
37.357727 1329949387.507670 503 483 593 405 310 399
37.357727 1329949387.515398 501 483 589 404 310 402
37.399440 1329949387.524374 500 485 585 405 310 403
37.399440 1329949387.532497 500 489 583 402 312 405
37.440851 1329949387.540316 499 493 581 400 315 410
37.440851 1329949387.548962 502 499 578 401 314 415
37.482461 1329949387.557345 506 504 575 406 318 418
37.482461 1329949387.565509 506 509 571 413 323 421
37.524024 1329949387.574051 508 514 568 419 325 423
37.524024 1329949387.589482 511 520 565 421 329 420
37.557413 1329949387.592092 524 530 566 419 335 408
37.557413 1329949387.598858 532 543 568 411 337 386
37.599053 1329949387.607447 536 559 571 399 339 352
37.599053 1329949387.615522 543 579 576 381 340 309
37.640824 1329949387.624279 551 598 583 358 345 260
37.640824 1329949387.632530 556 614 585 337 357 206
37.682770 1329949387.640679 564 633 582 331 373 138
37.682770 1329949387.648702 586 623 581 338 399 44
37.718336 1329949387.657414 611 597 583 356 432 4
37.718336 1329949387.664972 644 547 593 374 464 4
37.768307 1329949387.673999 705 488 608 372 476 4
37.768307 1329949387.690024 790 432 629 359 485 4
37.800552 1329949387.693029 855 371 664 323 483 4
37.800552 1329949387.698720 883 312 695 240 443 4
37.849898 1329949387.707564 866 255 721 163 377 4
37.849898 1329949387.715190 784 252 727 179 318 4
37.883379 1329949387.724057 716 277 711 264 262 39
37.883379 1329949387.732234 659 312 679 351 224 150
37.917442 1329949387.740636 615 349 645 397 207 239
37.917442 1329949387.748576 585 386 619 397 206 302
37.958681 1329949387.757340 567 419 601 365 211 343
37.958681 1329949387.765137 562 442 587 335 217 371
38.000699 1329949387.774162 555 458 579 322 235 386
38.000699 1329949387.794774 548 469 574 329 258 391
38.042351 1329949387.798249 541 474 570 342 281 390
38.042351 1329949387.807207 532 478 567 356 301 388
38.083800 1329949387.815724 525 482 567 367 322 383
38.083800 1329949387.823775 520 484 569 376 343 383
38.125860 1329949387.832441 516 485 573 385 358 388
38.125860 1329949387.849032 514 482 578 398 368 398
38.165367 1329949387.854435 516 480 581 410 379 404
38.165367 1329949387.858151 519 482 584 415 392 411
38.200583 1329949387.866009 520 485 589 415 398 416
38.200583 1329949387.873617 521 486 595 407 400 418
38.241834 1329949387.882688 517 487 598 404 395 424
38.241834 1329949387.903491 519 490 599 402 388 428
38.283865 1329949387.906890 519 494 600 397 385 428
38.283865 1329949387.915570 521 496 602 394 383 428
38.317503 1329949387.923957 519 495 604 393 381 428
38.317503 1329949387.932117 520 496 604 388 382 429
38.360780 1329949387.940764 521 500 606 379 386 427
38.360780 1329949387.948818 521 504 609 373 385 423
38.400449 1329949387.956817 521 503 611 377 377 421
38.400449 1329949387.965457 521 501 610 385 371 421
38.442175 1329949387.974317 522 500 610 387 370 422
38.442175 1329949387.981976 522 499 609 380 371 421
38.483793 1329949387.990902 522 500 609 375 371 419
38.483793 1329949387.999269 522 500 608 374 370 420
38.524915 1329949388.020047 522 502 607 379 371 422
38.524915 1329949388.043856 523 503 607 386 371 421
38.558674 1329949388.059287 523 501 605 393 370 419
38.558674 1329949388.065597 523 497 603 395 369 418
38.599780 1329949388.073832 523 497 600 395 371 421
38.599780 1329949388.082126 523 500 599 393 375 422
38.641804 1329949388.090646 522 500 600 387 384 419
38.641804 1329949388.098474 521 499 603 380 389 415
38.683221 1329949388.107119 521 499 603 373 389 415
38.683221 1329949388.115290 522 500 602 368 388 415
38.724135 1329949388.123441 522 502 603 369 386 415
38.724135 1329949388.131981 521 503 603 373 385 412
38.758148 1329949388.140739 521 504 604 376 385 410
38.758148 1329949388.148629 520 504 603 377 387 409
38.799880 1329949388.156967 521 504 602 376 387 408
38.799880 1329949388.165538 523 504 603 378 388 403
38.841480 1329949388.174200 522 504 603 382 389 400
38.841480 1329949388.191681 520 501 604 387 390 397
38.882867 1329949388.198893 520 500 604 388 390 397
38.882867 1329949388.206769 522 502 605 388 390 396
38.924402 1329949388.215671 523 503 606 388 389 391
38.924402 1329949388.223869 523 502 607 387 390 387
38.957519 1329949388.232122 524 500 607 385 390 383
38.957519 1329949388.240635 524 499 607 381 390 380
38.997102 1329949388.248904 525 498 608 379 389 380
38.997102 1329949388.257114 523 497 609 379 390 380
39.041145 1329949388.265909 523 496 609 380 388 381
39.041145 1329949388.273960 523 495 610 379 387 383
39.082858 1329949388.288591 522 497 610 380 383 384
39.082858 1329949388.292131 523 496 610 381 383 382
39.118024 1329949388.298968 523 495 611 380 381 384
39.118024 1329949388.306861 522 493 611 377 378 385
39.171570 1329949388.315632 522 491 610 373 374 386
39.171570 1329949388.323965 524 491 609 370 371 386
39.199530 1329949388.332093 524 492 608 367 371 385
39.199530 1329949388.340096 523 492 607 365 368 384
39.240757 1329949388.348962 522 493 606 365 367 385
39.240757 1329949388.356997 522 494 605 363 367 386
39.282619 1329949388.365551 522 495 604 364 369 385
39.282619 1329949388.373849 522 496 604 367 370 385
39.323714 1329949388.382364 522 497 603 367 370 381
39.323714 1329949388.403278 520 496 603 367 370 379
39.357823 1329949388.407155 520 495 602 366 371 379
39.357823 1329949388.415156 522 494 603 367 373 378
39.398853 1329949388.423257 522 494 603 374 375 379
39.398853 1329949388.432013 522 495 603 377 377 378
39.440566 1329949388.440411 522 496 603 378 378 378
39.440566 1329949388.451556 522 496 603 375 379 378
39.480019 1329949388.456981 522 496 604 373 380 377
39.480019 1329949388.465135 522 495 605 374 380 375
39.536043 1329949388.473883 522 495 606 374 380 375
39.536043 1329949388.481979 523 496 606 375 378 375
39.557187 1329949388.490081 523 495 606 376 377 374
39.557187 1329949388.498649 523 495 605 374 378 373
39.598504 1329949388.506980 522 494 605 375 377 374
39.598504 1329949388.514935 521 493 605 376 376 374
39.640346 1329949388.523377 521 492 605 376 376 374
39.640346 1329949388.531982 523 492 604 374 376 374
39.682348 1329949388.540132 523 491 605 370 378 373
39.682348 1329949388.560824 523 492 606 372 378 374
39.723838 1329949388.565170 522 492 606 371 376 373
39.723838 1329949388.574078 522 492 605 372 374 374
39.764805 1329949388.581677 523 492 605 372 374 376
39.764805 1329949388.590472 523 493 603 371 376 376
39.805538 1329949388.598550 523 492 603 369 377 375
39.805538 1329949388.610219 522 492 602 369 379 375
39.840373 1329949388.615261 522 492 603 369 379 376
39.840373 1329949388.624046 522 493 603 368 379 377
39.881542 1329949388.631930 525 493 603 367 381 377
39.881542 1329949388.640821 524 494 605 369 380 378
39.923298 1329949388.648926 524 494 605 372 380 374
39.923298 1329949388.657136 524 495 606 374 380 374
39.964814 1329949388.665329 524 495 606 375 379 374
39.964814 1329949388.673593 524 496 607 377 377 373
39.998721 1329949388.681640 523 495 606 379 375 375
39.998721 1329949388.690027 522 493 605 377 375 373
40.040363 1329949388.698546 523 492 604 374 376 373
40.040363 1329949388.709578 524 492 605 371 379 374
40.081799 1329949388.715018 524 490 607 372 378 374
40.081799 1329949388.723540 523 489 607 372 375 374
40.122962 1329949388.731777 524 491 605 372 372 376
40.122962 1329949388.740376 525 493 604 371 374 378
40.164519 1329949388.748382 524 494 605 372 377 376
40.164519 1329949388.767961 523 493 606 372 378 375
40.198112 1329949388.773513 522 491 605 372 376 375
40.198112 1329949388.782189 522 491 604 370 373 376
40.239970 1329949388.790671 523 492 604 369 375 378
40.239970 1329949388.799124 524 493 604 370 375 377
40.281468 1329949388.807101 523 494 604 372 376 377
40.281468 1329949388.815227 522 494 604 373 376 377
40.322987 1329949388.823735 523 494 603 374 376 378
40.322987 1329949388.832061 523 495 604 376 378 379
40.364851 1329949388.840544 524 496 605 377 378 378
40.364851 1329949388.848574 524 496 607 378 377 376
40.398557 1329949388.856778 523 496 606 378 375 375
40.398557 1329949388.870481 524 496 604 376 375 375
40.439729 1329949388.874345 524 496 604 374 376 374
40.439729 1329949388.882215 524 495 605 375 377 373
40.481305 1329949388.889914 524 495 605 376 375 372
40.481305 1329949388.898214 523 495 605 377 375 373
40.524352 1329949388.906379 524 495 605 377 377 373
40.524352 1329949388.914484 524 494 605 376 377 373
40.557410 1329949388.922889 524 493 604 376 376 372
40.557410 1329949388.931553 524 493 604 376 376 372
40.608402 1329949388.939520 524 493 604 376 375 373
40.608402 1329949388.947965 524 494 603 376 377 371
40.640281 1329949388.955719 524 494 602 376 378 370
40.640281 1329949388.971639 524 493 603 374 380 371
40.681217 1329949388.975208 524 494 603 375 381 371
40.681217 1329949388.981405 523 495 603 378 379 371
40.722367 1329949388.989921 523 495 604 380 379 372
40.722367 1329949388.998116 523 494 603 383 379 371
40.764186 1329949389.006603 524 493 603 381 379 371
40.764186 1329949389.014676 524 493 603 382 381 371
40.797659 1329949389.023054 524 494 604 385 382 372
40.797659 1329949389.031372 523 495 606 385 382 372
40.839865 1329949389.040131 523 496 606 385 380 372
40.839865 1329949389.048330 524 497 604 389 378 373
40.880853 1329949389.055954 525 497 604 394 378 373
40.880853 1329949389.066636 524 496 604 398 380 372
40.931357 1329949389.072757 523 497 604 401 381 369
40.931357 1329949389.081236 524 497 603 405 381 368
40.962118 1329949389.090048 523 497 603 411 381 368
40.962118 1329949389.098120 522 498 603 418 383 368
41.019702 1329949389.105956 521 498 602 425 381 369
41.019702 1329949389.122708 522 499 600 435 379 370
41.038783 1329949389.137319 525 502 599 443 381 366
41.038783 1329949389.140383 526 503 599 449 381 361
41.080901 1329949389.147224 526 503 598 452 384 352
41.080901 1329949389.155406 527 501 598 452 383 345
41.121658 1329949389.163634 529 498 598 449 385 339
41.121658 1329949389.172014 531 496 600 445 387 330
41.164721 1329949389.186996 532 496 603 440 385 322
41.164721 1329949389.189804 533 496 604 436 381 315
41.207453 1329949389.197164 537 491 604 427 377 305
41.207453 1329949389.205468 540 486 605 413 373 296
41.241072 1329949389.213839 541 482 606 400 370 290
41.241072 1329949389.221899 543 480 607 396 367 286
41.283452 1329949389.230459 545 478 607 395 362 282
41.283452 1329949389.238743 545 477 607 393 357 280
41.327444 1329949389.246801 546 475 607 391 356 278
41.327444 1329949389.255266 549 471 608 391 356 278
41.363315 1329949389.262892 551 467 609 393 356 274
41.363315 1329949389.271205 552 464 611 390 356 272
41.397402 1329949389.279635 551 463 612 385 353 272
41.397402 1329949389.288309 554 460 615 380 351 271
41.442042 1329949389.296407 555 454 618 382 350 275
41.442042 1329949389.304706 555 454 621 385 344 278
41.480466 1329949389.312785 554 456 622 391 335 281
41.480466 1329949389.320786 553 458 619 391 325 284
41.521678 1329949389.330151 554 456 619 389 319 287
41.521678 1329949389.338001 556 452 618 387 312 291
41.565711 1329949389.346380 555 451 617 386 306 294
41.565711 1329949389.354833 551 449 616 387 301 298
41.605815 1329949389.362757 550 447 615 390 297 301
41.605815 1329949389.370864 548 449 614 390 291 306
41.638365 1329949389.379657 546 451 613 380 286 308
41.638365 1329949389.388213 545 453 611 361 282 307
41.681676 1329949389.396110 544 454 613 342 280 304
41.681676 1329949389.404570 544 453 616 328 272 300
41.721787 1329949389.415697 542 454 617 320 262 297
41.721787 1329949389.438319 540 456 615 308 252 294
41.762618 1329949389.446249 537 455 610 298 249 292
41.762618 1329949389.454480 533 452 605 292 247 291
41.804966 1329949389.463016 529 452 600 288 246 293
41.804966 1329949389.471125 526 452 596 286 248 295
41.838480 1329949389.479363 523 453 590 284 256 301
41.838480 1329949389.487056 519 457 585 282 266 301
41.880299 1329949389.496181 517 458 580 280 275 300
41.880299 1329949389.504296 516 456 576 281 286 301
41.922091 1329949389.512972 512 452 575 290 293 306
41.922091 1329949389.521061 512 449 572 306 297 316
41.963515 1329949389.529146 511 446 568 323 300 326
41.963515 1329949389.541252 510 443 564 335 303 340
41.997167 1329949389.556116 509 441 560 340 306 354
41.997167 1329949389.567951 510 435 555 336 312 368
42.038725 1329949389.581759 512 430 551 332 321 384
42.038725 1329949389.595821 512 428 547 324 329 400
42.080791 1329949389.597872 517 430 544 317 336 415
42.080791 1329949389.603672 524 430 540 311 344 430
42.121527 1329949389.612669 529 429 538 307 356 444
42.121527 1329949389.621111 533 427 535 299 371 464
42.164971 1329949389.629254 538 418 533 288 384 492
42.164971 1329949389.637482 547 395 539 284 400 532
42.196132 1329949389.645961 554 376 549 284 414 611
42.196132 1329949389.653306 574 376 560 286 422 725
42.237966 1329949389.662594 631 417 578 308 439 843
42.237966 1329949389.670841 706 490 596 364 445 939
42.279669 1329949389.679092 784 574 621 431 455 1012
42.279669 1329949389.687458 848 624 644 500 456 1010
42.321395 1329949389.695574 833 654 675 529 443 915
42.321395 1329949389.703963 805 654 692 517 434 814
42.362262 1329949389.712669 745 648 702 466 397 718
42.362262 1329949389.720918 683 641 703 409 351 639
42.403459 1329949389.728572 640 642 685 358 306 574
42.403459 1329949389.737508 612 633 658 326 276 516
42.450867 1329949389.745898 593 614 632 314 265 480
42.450867 1329949389.753927 579 591 613 318 269 461
42.478263 1329949389.762592 563 576 601 338 286 453
42.478263 1329949389.770774 554 565 594 363 310 449
42.519671 1329949389.785231 553 552 593 383 335 450
42.519671 1329949389.788977 551 542 595 398 352 455
42.566469 1329949389.795426 546 538 598 413 362 452
42.566469 1329949389.803880 541 537 602 422 373 445
42.603440 1329949389.812414 539 534 607 416 378 440
42.603440 1329949389.820841 542 526 610 406 372 436
42.636819 1329949389.842332 542 518 612 398 368 434
42.636819 1329949389.845782 542 515 614 400 368 431
42.677793 1329949389.853680 542 519 616 404 366 432
42.677793 1329949389.861952 541 520 616 408 353 430
42.719257 1329949389.870608 542 516 615 415 344 429
42.719257 1329949389.878840 542 513 613 420 340 423
42.760935 1329949389.887253 541 512 613 419 341 417
42.760935 1329949389.895674 537 512 613 413 339 414
42.799565 1329949389.903521 532 509 612 403 337 408
42.799565 1329949389.912120 533 503 611 398 339 400
42.836080 1329949389.920658 531 499 611 400 341 396
42.836080 1329949389.928776 528 499 610 401 339 395
42.877386 1329949389.937096 526 497 608 400 336 398
42.877386 1329949389.945859 526 495 608 398 339 397
42.926775 1329949389.953486 523 495 611 401 342 395
42.926775 1329949389.961691 521 495 612 404 338 395
42.962526 1329949389.970542 519 494 612 406 334 396
42.962526 1329949389.978762 518 492 611 406 331 397
43.002068 1329949389.986936 517 491 610 407 329 398
43.002068 1329949389.995215 516 491 610 407 326 398
43.044026 1329949390.003666 515 492 610 408 322 399
43.044026 1329949390.011628 513 493 609 410 319 400
43.077260 1329949390.020355 510 493 605 413 315 402
43.077260 1329949390.028444 512 493 603 415 316 403
43.135660 1329949390.036804 508 493 601 418 314 405
43.135660 1329949390.046964 505 493 598 422 310 407
43.160527 1329949390.053548 503 493 595 432 309 412
43.160527 1329949390.061870 504 496 593 449 308 419
43.207175 1329949390.070739 504 500 591 467 308 425
43.207175 1329949390.079211 502 505 590 478 306 427
43.253820 1329949390.087484 503 510 587 480 308 424
43.253820 1329949390.095847 504 514 586 471 313 416
43.276476 1329949390.104160 507 517 585 453 315 401
43.276476 1329949390.111815 510 521 582 437 316 383
43.328818 1329949390.120639 516 525 579 422 319 364
43.328818 1329949390.129326 524 530 575 410 326 345
43.360247 1329949390.137283 532 537 573 400 332 326
43.360247 1329949390.145943 542 545 573 391 337 304
43.401830 1329949390.160431 553 553 574 381 337 271
43.401830 1329949390.164091 563 559 573 371 338 228
43.443778 1329949390.171203 572 565 573 359 343 181
43.443778 1329949390.181779 583 575 579 349 345 127
43.485580 1329949390.188572 590 584 587 338 350 57
43.485580 1329949390.196880 612 582 591 317 355 4
43.519887 1329949390.204828 649 559 598 274 371 4
43.519887 1329949390.213477 708 517 611 229 396 4
43.561278 1329949390.221490 785 459 627 219 427 4
43.561278 1329949390.230253 855 402 650 230 465 4
43.602859 1329949390.238684 882 344 683 268 475 4
43.602859 1329949390.246966 852 282 712 324 425 4
43.644087 1329949390.257488 769 262 721 380 330 4
43.644087 1329949390.263825 700 285 703 417 250 61
43.692699 1329949390.271862 670 320 670 435 196 160
43.692699 1329949390.280138 628 355 638 424 181 234
43.727464 1329949390.288682 601 386 613 388 185 285
43.727464 1329949390.296675 578 410 595 349 200 318
43.761599 1329949390.304867 570 430 583 320 216 337
43.761599 1329949390.313424 564 444 577 308 239 345
43.802588 1329949390.321742 554 451 573 307 259 348
43.802588 1329949390.330287 544 452 571 314 274 349
43.844499 1329949390.338555 534 454 571 323 286 357
43.844499 1329949390.347209 525 461 571 335 298 369
43.877740 1329949390.355044 519 472 572 349 313 380
43.877740 1329949390.366689 516 480 574 361 332 384
43.919677 1329949390.371793 517 482 576 368 345 382
43.919677 1329949390.380055 514 482 578 373 355 384
43.963456 1329949390.388084 512 482 581 372 360 391
43.963456 1329949390.396896 512 485 585 375 369 400
44.001734 1329949390.404762 512 487 589 382 376 409
44.001734 1329949390.414201 513 486 593 389 379 413
44.040392 1329949390.421595 511 485 594 395 378 418
44.040392 1329949390.430054 513 487 594 397 379 425
44.078384 1329949390.438289 512 492 595 395 382 433
44.078384 1329949390.446782 510 497 598 387 384 435
44.127887 1329949390.454829 508 500 600 377 381 432
44.127887 1329949390.462446 509 503 602 372 377 429
44.161157 1329949390.471689 512 505 604 368 377 424
44.161157 1329949390.480187 512 506 604 365 379 420
44.202809 1329949390.488443 509 510 604 366 379 417
44.202809 1329949390.496854 509 514 605 368 377 413
44.244611 1329949390.505038 508 515 605 371 377 405
44.244611 1329949390.512992 511 512 606 373 380 398
44.282228 1329949390.521793 511 510 607 374 380 397
44.282228 1329949390.530156 510 510 606 375 380 396
44.319591 1329949390.537940 511 510 606 378 381 396
44.319591 1329949390.546633 512 508 607 379 383 396
44.361270 1329949390.554753 511 507 607 378 382 397
44.361270 1329949390.569772 511 507 606 377 379 399
44.402868 1329949390.573124 512 507 605 379 378 398
44.402868 1329949390.580218 513 506 605 379 379 399
44.441327 1329949390.587684 514 505 605 379 381 401
44.441327 1329949390.596934 514 507 604 377 381 403
44.477558 1329949390.604863 513 507 604 376 382 403
44.477558 1329949390.613352 514 504 603 375 382 403
44.519492 1329949390.621738 515 503 604 375 382 403
44.519492 1329949390.630041 517 503 603 375 381 404
44.561041 1329949390.638286 516 504 603 377 383 406
44.561041 1329949390.646837 516 502 604 379 382 407
44.602415 1329949390.654841 517 501 604 379 383 408
44.602415 1329949390.663463 519 500 603 378 383 409
44.644020 1329949390.684209 517 502 603 377 385 410
44.644020 1329949390.687979 515 502 605 376 386 411
44.677724 1329949390.696770 517 501 607 376 386 411
44.677724 1329949390.704894 517 501 607 376 384 412
44.719044 1329949390.713029 517 503 607 377 383 413
44.719044 1329949390.721675 517 505 606 378 383 412
44.760232 1329949390.729794 519 505 606 378 382 413
44.760232 1329949390.738278 518 506 605 377 382 413
44.800102 1329949390.750914 519 507 605 377 380 411
44.800102 1329949390.754783 520 507 606 376 383 411
44.843868 1329949390.763091 520 506 605 378 383 408
44.843868 1329949390.771495 521 506 606 378 384 405
44.877387 1329949390.779836 520 506 606 379 382 404
44.877387 1329949390.793944 520 505 606 381 381 404
44.919017 1329949390.797112 519 505 605 382 382 405
44.919017 1329949390.804974 520 505 605 381 383 405
44.960298 1329949390.813008 521 505 605 379 385 404
44.960298 1329949390.821583 520 505 605 381 385 403
45.002137 1329949390.829798 521 504 606 383 385 402
45.002137 1329949390.838316 520 505 605 386 386 403
45.043414 1329949390.846222 520 503 606 387 385 400
45.043414 1329949390.854857 521 502 607 386 384 400
45.090466 1329949390.863073 521 502 606 383 383 400
45.090466 1329949390.871352 522 502 606 382 385 399
45.118833 1329949390.879749 522 502 606 380 386 398
45.118833 1329949390.888348 521 502 608 377 385 398
45.160119 1329949390.896016 520 502 607 377 382 399
45.160119 1329949390.904998 522 502 607 380 381 398
45.201394 1329949390.913019 523 501 606 381 382 398
45.201394 1329949390.921489 524 501 607 380 381 399
45.243278 1329949390.930254 524 501 608 378 381 397
45.243278 1329949390.950721 523 501 606 376 379 396
45.284371 1329949390.954539 524 500 606 375 378 395
45.284371 1329949390.963297 523 501 605 375 378 396
45.318340 1329949390.971136 523 501 604 373 379 395
45.318340 1329949390.980098 523 501 605 374 380 395
45.362198 1329949390.988202 522 501 605 375 380 394
45.362198 1329949390.996221 522 502 604 375 381 393
45.398471 1329949391.004676 522 503 605 374 380 391
45.398471 1329949391.013461 521 503 605 375 380 389
45.442632 1329949391.021085 521 503 604 377 381 388
45.442632 1329949391.030037 523 502 604 377 381 386
45.484885 1329949391.038437 524 502 605 377 383 385
45.484885 1329949391.046215 525 502 606 377 384 383
45.518017 1329949391.054672 525 500 607 379 384 382
45.518017 1329949391.063113 526 500 607 380 383 381
45.560020 1329949391.071096 525 499 607 380 381 380
45.560020 1329949391.079889 525 497 607 381 380 380
45.600839 1329949391.088220 525 496 606 379 377 381
45.600839 1329949391.105725 525 495 605 376 377 380
45.642922 1329949391.113221 524 495 605 373 378 380
45.642922 1329949391.121308 523 495 605 373 378 382
45.684407 1329949391.129264 524 495 604 374 378 383
45.684407 1329949391.138109 525 496 604 374 378 383
45.717811 1329949391.146364 524 498 604 375 378 382
45.717811 1329949391.154409 524 497 604 377 377 381
45.759015 1329949391.162600 525 496 604 377 378 378
45.759015 1329949391.170979 524 496 604 375 378 376
45.801070 1329949391.179512 524 494 604 374 378 375
45.801070 1329949391.187830 523 492 604 375 377 377
45.842372 1329949391.196341 524 490 604 376 378 378
45.842372 1329949391.210818 526 490 604 376 380 379
45.882846 1329949391.214185 524 490 604 378 380 381
45.882846 1329949391.221051 524 491 604 376 379 384
45.926416 1329949391.229100 524 491 604 373 377 385
45.926416 1329949391.237810 525 492 604 370 379 385
45.962876 1329949391.246281 526 493 605 367 380 388
45.962876 1329949391.254079 527 496 604 366 380 386
46.000649 1329949391.262614 527 498 606 367 380 385
46.000649 1329949391.270883 526 498 608 372 379 383
46.042289 1329949391.279213 526 496 607 374 374 384
46.042289 1329949391.287597 527 496 606 374 371 382
46.083632 1329949391.296165 527 496 604 370 374 381
46.083632 1329949391.304553 527 497 604 367 376 380
46.117227 1329949391.325789 525 498 605 367 379 381
46.117227 1329949391.329119 524 498 605 370 379 380
46.166004 1329949391.337631 523 498 603 371 377 380
46.166004 1329949391.345986 525 498 602 370 378 379
46.203172 1329949391.354470 525 497 602 369 381 378
46.203172 1329949391.362373 526 497 603 370 385 377
46.254804 1329949391.370694 526 498 604 373 385 378
46.254804 1329949391.379212 525 499 605 377 384 377
46.283728 1329949391.387450 526 499 605 378 381 375
46.283728 1329949391.395677 527 498 605 379 381 374
46.325443 1329949391.404300 527 498 605 377 382 374
46.325443 1329949391.412320 528 498 606 377 382 374
46.364246 1329949391.420961 527 496 605 375 380 372
46.364246 1329949391.433449 526 496 606 375 379 371
46.401634 1329949391.437165 526 496 605 374 377 370
