imu_t vicon_t accel_x accel_y accel_z gyro_x gyro_y gyro_z
1.086362 1329704121.308178 502 502 605 373 376 370
1.145448 1329704121.322668 502 502 605 375 376 370
1.145448 1329704121.332805 503 502 605 375 376 369
1.145448 1329704121.341515 503 502 605 375 377 370
1.145448 1329704121.349593 502 502 605 374 376 371
1.145448 1329704121.358097 502 502 605 374 376 371
1.145448 1329704121.366441 503 502 604 375 375 371
1.204986 1329704121.374731 502 502 605 375 377 370
1.204986 1329704121.382819 502 502 605 374 376 370
1.204986 1329704121.391493 502 502 605 374 375 370
1.204986 1329704121.399458 502 502 605 374 376 372
1.204986 1329704121.408101 502 502 605 374 376 369
1.204986 1329704121.416384 502 502 604 373 376 370
1.267256 1329704121.424819 502 502 605 375 377 371
1.267256 1329704121.432806 503 502 604 374 377 371
1.267256 1329704121.442110 503 502 605 375 376 369
1.267256 1329704121.449243 503 502 605 375 377 370
1.267256 1329704121.462819 503 502 604 375 376 371
1.267256 1329704121.466272 503 502 605 376 376 370
1.325650 1329704121.474513 503 502 605 374 376 370
1.325650 1329704121.482597 503 502 605 375 376 370
1.325650 1329704121.491749 502 502 605 374 376 371
1.325650 1329704121.499399 502 502 604 375 376 371
1.325650 1329704121.513902 502 502 605 374 376 370
1.325650 1329704121.516690 503 502 605 374 376 370
1.383686 1329704121.524386 503 502 605 375 376 371
1.383686 1329704121.532887 503 502 605 374 376 370
1.383686 1329704121.541305 503 502 605 374 376 370
1.383686 1329704121.549291 502 502 605 374 376 370
1.383686 1329704121.558006 503 502 604 373 375 370
1.383686 1329704121.567499 503 502 605 373 376 370
1.442259 1329704121.574329 502 502 605 374 376 370
1.442259 1329704121.582775 503 502 604 375 376 371
1.442259 1329704121.591339 502 502 605 375 375 370
1.442259 1329704121.599741 502 502 605 374 376 371
1.442259 1329704121.607831 502 502 605 375 375 371
1.442259 1329704121.617905 502 502 605 374 375 370
1.508562 1329704121.626474 502 502 605 373 377 371
1.508562 1329704121.632842 503 502 605 375 376 370
1.508562 1329704121.641293 503 502 605 375 376 369
1.508562 1329704121.649257 503 502 605 375 376 370
1.508562 1329704121.657940 503 502 605 374 376 371
1.508562 1329704121.666306 503 502 605 375 377 371
1.567348 1329704121.674957 502 502 605 373 376 369
1.567348 1329704121.682919 502 502 604 374 376 371
1.567348 1329704121.691533 502 502 605 374 377 370
1.567348 1329704121.699442 502 502 605 374 376 370
1.567348 1329704121.708222 502 502 604 373 376 371
1.567348 1329704121.716281 502 502 604 374 376 371
1.625484 1329704121.726897 502 502 605 373 376 370
1.625484 1329704121.741667 503 502 605 374 377 371
1.625484 1329704121.754011 503 502 604 374 377 370
1.625484 1329704121.768588 502 502 604 373 376 370
1.625484 1329704121.792042 502 502 605 374 376 370
1.625484 1329704121.815368 503 502 605 374 375 370
1.684716 1329704121.829082 502 502 605 375 377 370
1.684716 1329704121.832530 503 502 605 374 375 370
1.684716 1329704121.841619 502 502 605 374 377 370
1.684716 1329704121.850929 503 502 605 374 377 370
1.684716 1329704121.858382 502 502 604 374 376 370
1.684716 1329704121.866111 502 502 605 374 376 370
1.741453 1329704121.874505 502 502 605 375 376 370
1.741453 1329704121.882754 502 502 605 374 377 370
1.741453 1329704121.891397 502 502 605 374 376 370
1.741453 1329704121.899532 502 502 604 374 376 370
1.741453 1329704121.908872 502 502 605 374 376 370
1.741453 1329704121.916026 503 502 605 374 376 370
1.808636 1329704121.925778 502 502 604 373 376 370
1.808636 1329704121.932801 502 502 605 374 376 370
1.808636 1329704121.944423 503 502 605 374 376 371
1.808636 1329704121.949092 503 502 605 374 376 371
1.808636 1329704121.957702 503 502 605 374 377 370
1.808636 1329704121.965649 503 502 605 375 376 370
1.867013 1329704121.974450 502 502 605 374 376 370
1.867013 1329704121.982553 502 502 605 374 376 370
1.867013 1329704121.997200 502 502 604 373 376 371
1.867013 1329704122.010864 503 502 605 374 376 370
1.867013 1329704122.015982 502 502 605 375 375 371
1.867013 1329704122.023944 503 502 605 373 375 370
1.922602 1329704122.032629 502 502 605 374 376 371
1.922602 1329704122.040860 502 502 605 374 377 370
1.922602 1329704122.049392 502 502 604 375 376 371
1.922602 1329704122.060066 502 502 605 374 376 370
1.922602 1329704122.066106 502 502 605 374 376 370
1.922602 1329704122.073888 503 502 605 374 376 370
1.990616 1329704122.082572 502 502 605 374 376 369
1.990616 1329704122.090813 503 502 605 374 376 370
1.990616 1329704122.101396 502 502 605 375 376 370
1.990616 1329704122.124813 503 502 605 374 376 370
1.990616 1329704122.132647 502 502 605 375 376 370
1.990616 1329704122.140266 503 502 605 374 376 370
2.047819 1329704122.149296 502 502 605 375 377 371
2.047819 1329704122.157590 502 502 604 374 376 370
2.047819 1329704122.165870 503 502 605 375 377 370
2.047819 1329704122.174174 503 502 605 374 376 370
2.047819 1329704122.182716 502 502 605 374 377 369
2.047819 1329704122.190320 503 502 605 375 375 371
2.091007 1329704122.198876 502 502 605 374 376 370
2.091007 1329704122.207547 502 502 605 374 376 370
2.091007 1329704122.215674 503 502 605 374 376 370
2.091007 1329704122.223913 502 502 604 374 377 369
2.125046 1329704122.232673 502 502 605 374 376 370
2.125046 1329704122.240477 503 502 605 374 376 370
2.150413 1329704122.248980 502 502 605 374 376 371
2.183064 1329704122.257443 502 502 605 374 376 370
2.183064 1329704122.266009 502 502 605 374 376 370
2.216718 1329704122.274046 503 502 605 374 376 370
2.241659 1329704122.287637 502 502 605 374 377 370
2.241659 1329704122.292464 502 502 605 374 376 371
2.274718 1329704122.299826 502 502 605 374 376 370
2.307944 1329704122.307454 503 502 605 375 376 371
2.307944 1329704122.317143 503 502 604 375 376 370
2.332639 1329704122.323605 503 502 604 373 377 370
2.366186 1329704122.333639 503 502 605 374 376 370
2.366186 1329704122.340206 502 502 605 374 376 370
2.391282 1329704122.349051 502 502 604 374 376 369
2.424685 1329704122.357332 502 502 605 374 376 371
2.424685 1329704122.365482 502 502 605 373 376 370
2.457986 1329704122.373757 502 502 605 375 377 370
2.482857 1329704122.382571 504 504 605 374 376 370
2.482857 1329704122.401130 502 502 607 373 376 371
2.516095 1329704122.407253 501 502 609 375 376 371
2.541206 1329704122.415518 504 503 603 374 375 371
2.541206 1329704122.423852 503 502 606 374 377 369
2.574835 1329704122.432262 503 502 603 374 376 371
2.601176 1329704122.440917 502 502 605 375 376 371
2.601176 1329704122.455209 502 503 604 374 376 371
2.632925 1329704122.460183 502 502 605 374 376 371
2.665498 1329704122.473091 503 502 604 374 377 370
2.665498 1329704122.487934 503 502 605 374 375 371
2.697724 1329704122.492857 503 503 604 374 376 371
2.724063 1329704122.507728 502 502 605 374 376 371
2.724063 1329704122.519715 502 502 604 373 376 370
2.758264 1329704122.534301 502 502 605 376 376 369
2.781798 1329704122.540963 504 503 605 374 375 369
2.781798 1329704122.557648 503 502 605 374 376 370
2.815875 1329704122.565435 502 502 604 375 377 370
2.840272 1329704122.574005 502 502 605 374 376 371
2.840272 1329704122.581967 502 502 605 374 377 371
2.876915 1329704122.590099 502 503 605 374 375 371
2.906567 1329704122.598908 503 502 604 374 375 370
2.906567 1329704122.619638 503 502 605 374 376 371
2.931438 1329704122.623583 502 502 604 374 376 370
2.964971 1329704122.632740 502 502 605 373 376 370
2.964971 1329704122.640505 502 502 604 374 376 369
2.997708 1329704122.649204 502 502 604 373 376 370
3.024844 1329704122.657005 503 502 604 374 377 370
3.024844 1329704122.665806 502 502 604 375 377 371
3.056492 1329704122.673360 502 502 605 374 376 370
3.098020 1329704122.682219 503 502 605 374 376 370
3.098020 1329704122.690038 503 503 605 373 376 370
3.123307 1329704122.698414 502 502 605 375 376 371
3.156347 1329704122.706789 501 503 604 374 376 371
3.200362 1329704122.715679 503 502 605 373 378 370
3.200362 1329704122.723383 503 503 604 373 381 370
3.231099 1329704122.732025 503 501 605 374 381 369
3.231099 1329704122.740510 503 503 604 374 380 371
3.272810 1329704122.748145 503 502 605 375 379 371
3.272810 1329704122.757033 503 502 605 374 377 370
3.314370 1329704122.765474 503 503 605 374 374 370
3.314370 1329704122.773422 503 502 605 374 374 370
3.356159 1329704122.782419 504 503 605 374 374 371
3.356159 1329704122.790416 503 502 605 373 374 370
3.398759 1329704122.798721 501 501 604 375 377 369
3.398759 1329704122.806979 501 503 603 375 381 370
3.431116 1329704122.815366 502 501 604 374 385 371
3.431116 1329704122.823452 503 502 604 373 392 371
3.474701 1329704122.831964 504 504 607 375 398 370
3.474701 1329704122.840266 506 501 604 374 398 370
3.515744 1329704122.848268 507 503 605 375 400 370
3.515744 1329704122.856813 511 500 606 375 399 371
3.556168 1329704122.866754 505 498 606 375 400 372
3.556168 1329704122.873139 505 500 607 376 392 381
3.597600 1329704122.881999 512 510 608 381 389 392
3.597600 1329704122.890161 517 526 608 380 404 387
3.631102 1329704122.898283 515 521 619 377 419 373
3.631102 1329704122.916961 516 517 630 383 420 367
3.684006 1329704122.923673 523 520 636 385 414 364
3.684006 1329704122.931415 528 522 638 392 407 361
3.714271 1329704122.940237 527 521 639 394 393 359
3.714271 1329704122.948315 527 518 637 391 377 358
3.755796 1329704122.956475 526 519 636 388 363 355
3.755796 1329704122.965244 527 518 630 385 355 356
3.796973 1329704122.973576 526 517 625 380 346 359
3.796973 1329704122.981516 523 518 621 371 344 361
3.840875 1329704122.990488 520 517 616 362 350 360
3.840875 1329704122.998631 516 514 611 358 356 362
3.872391 1329704123.006438 518 515 610 351 366 363
3.872391 1329704123.019115 519 513 607 345 377 365
3.914180 1329704123.023565 518 514 605 340 388 361
3.914180 1329704123.031372 518 513 601 338 396 358
3.964547 1329704123.040104 520 514 600 338 404 358
3.964547 1329704123.048820 516 512 600 345 407 357
3.997725 1329704123.056326 517 512 601 346 405 352
3.997725 1329704123.071590 519 512 602 346 403 351
4.039586 1329704123.083647 518 509 602 347 403 350
4.039586 1329704123.089734 516 506 600 354 403 351
4.072730 1329704123.098723 517 512 599 354 397 350
4.072730 1329704123.106750 518 510 599 353 396 347
4.113922 1329704123.115516 517 510 599 359 400 351
4.113922 1329704123.123477 515 511 595 368 405 353
4.155922 1329704123.132877 518 510 592 375 405 354
4.155922 1329704123.139636 517 510 593 373 407 353
4.197800 1329704123.148187 516 508 590 369 413 353
4.197800 1329704123.156397 511 502 585 375 410 354
4.231725 1329704123.164745 513 500 585 385 409 352
4.231725 1329704123.173400 511 498 585 380 414 350
4.303973 1329704123.181755 516 500 586 367 420 347
4.303973 1329704123.189693 517 502 593 358 436 349
4.314311 1329704123.198015 527 497 593 365 452 351
4.314311 1329704123.206443 527 495 589 375 458 351
4.356156 1329704123.214857 527 495 589 389 460 354
4.356156 1329704123.223278 532 493 586 396 457 359
4.397878 1329704123.237251 541 496 590 407 449 366
4.397878 1329704123.242279 542 497 593 412 441 365
4.431096 1329704123.263716 544 495 596 406 429 360
4.431096 1329704123.266194 557 493 604 400 416 356
4.473963 1329704123.273245 560 496 609 397 405 357
4.473963 1329704123.281619 554 496 610 394 392 358
4.513825 1329704123.289848 554 497 609 389 383 359
4.513825 1329704123.305262 554 497 609 381 382 363
4.564948 1329704123.319556 551 497 609 374 385 364
4.564948 1329704123.332357 548 494 606 367 384 364
4.593949 1329704123.339875 547 500 603 367 380 364
4.593949 1329704123.347903 547 503 600 365 377 363
4.634751 1329704123.362468 538 502 596 369 377 362
4.634751 1329704123.365413 538 503 593 378 374 361
4.673519 1329704123.382329 539 504 591 382 374 362
4.673519 1329704123.405754 536 503 591 376 380 362
4.718932 1329704123.408751 535 501 592 364 396 362
4.718932 1329704123.414948 538 502 590 359 410 363
4.766909 1329704123.422996 532 502 588 360 418 363
4.766909 1329704123.431573 529 502 584 360 417 366
4.797210 1329704123.439822 527 503 580 360 415 369
4.797210 1329704123.454601 520 500 576 362 418 370
4.838895 1329704123.457798 516 497 571 366 423 370
4.838895 1329704123.464983 510 495 567 370 426 375
4.874610 1329704123.473092 502 494 564 370 427 378
4.874610 1329704123.481419 491 493 559 368 429 383
4.913835 1329704123.489770 487 494 553 368 430 392
4.913835 1329704123.497828 487 494 550 368 430 400
4.955429 1329704123.509124 483 490 548 369 430 403
4.955429 1329704123.514911 491 496 545 373 426 406
4.996601 1329704123.522960 514 496 549 381 429 405
4.996601 1329704123.531421 546 514 559 382 439 403
5.038553 1329704123.539628 597 538 568 383 453 400
5.038553 1329704123.550103 646 547 588 359 474 368
5.071818 1329704123.556356 677 526 613 331 502 331
5.071818 1329704123.564599 713 526 627 330 505 311
5.113253 1329704123.573192 729 529 640 366 494 325
5.113253 1329704123.581266 705 530 641 399 472 333
5.154931 1329704123.589446 680 529 634 405 438 340
5.154931 1329704123.597527 653 528 624 399 394 348
5.196450 1329704123.606438 634 517 613 389 350 354
5.196450 1329704123.614715 615 507 602 380 318 356
5.231222 1329704123.622677 609 505 592 374 299 362
5.231222 1329704123.631385 599 503 585 369 288 368
5.274303 1329704123.639636 589 504 581 366 288 374
5.274303 1329704123.647519 584 506 579 359 300 375
5.313211 1329704123.656178 580 508 578 354 321 372
5.313211 1329704123.664607 576 510 582 347 343 369
5.354960 1329704123.672736 582 511 591 346 361 370
5.354960 1329704123.680927 584 513 601 352 365 374
5.396331 1329704123.689500 587 513 612 355 358 376
5.396331 1329704123.697464 590 512 623 348 343 372
5.434467 1329704123.706032 591 512 631 335 316 368
5.434467 1329704123.714408 595 514 635 328 279 364
5.472564 1329704123.722618 593 518 637 322 249 359
5.472564 1329704123.730974 594 520 635 313 227 353
5.513848 1329704123.739430 593 517 629 302 202 350
5.513848 1329704123.747421 586 519 625 288 181 347
5.555149 1329704123.761557 583 521 618 274 168 345
5.555149 1329704123.764099 579 526 612 267 160 343
5.596978 1329704123.772678 573 524 610 255 155 339
5.596978 1329704123.780893 567 529 606 244 150 340
5.640231 1329704123.789484 561 532 599 245 143 341
5.640231 1329704123.797658 552 534 595 250 142 342
5.673568 1329704123.805878 545 536 591 253 146 343
5.673568 1329704123.814337 535 538 582 263 147 348
5.712785 1329704123.822639 536 544 574 277 148 354
5.712785 1329704123.830989 517 546 568 292 160 356
5.753691 1329704123.839289 513 544 563 305 172 356
5.753691 1329704123.847465 508 552 560 317 183 357
5.796539 1329704123.855933 499 553 555 327 189 357
5.796539 1329704123.864273 495 547 543 342 189 357
5.836670 1329704123.872438 485 549 536 353 197 357
5.836670 1329704123.880698 476 549 528 361 204 355
5.872196 1329704123.889531 472 550 515 369 212 355
5.872196 1329704123.897497 468 552 509 375 226 358
5.912465 1329704123.905945 461 550 503 378 250 362
5.912465 1329704123.915957 458 549 496 376 273 365
5.953237 1329704123.928486 450 550 491 374 298 369
5.953237 1329704123.931403 446 555 490 373 324 370
5.994004 1329704123.938784 446 558 491 375 352 373
5.994004 1329704123.947103 447 558 494 377 376 379
6.036087 1329704123.960422 448 557 496 380 395 383
6.036087 1329704123.963521 448 558 501 383 413 384
6.077428 1329704123.972381 450 562 507 389 431 385
6.077428 1329704123.980245 453 563 513 400 445 384
6.111959 1329704123.988529 454 564 521 412 458 383
6.111959 1329704123.996567 460 566 528 423 470 382
6.152342 1329704124.012474 465 566 534 431 481 379
6.152342 1329704124.014622 466 563 541 434 488 378
6.195634 1329704124.021812 469 563 547 437 496 374
6.195634 1329704124.030141 472 562 554 445 507 373
6.236906 1329704124.038754 478 560 560 448 516 370
6.236906 1329704124.046354 482 557 565 444 523 369
6.279417 1329704124.055213 486 555 574 449 530 368
6.279417 1329704124.073011 493 553 579 461 533 367
6.311972 1329704124.079888 496 546 583 465 530 365
6.311972 1329704124.088134 502 544 586 459 528 364
6.354237 1329704124.096580 505 544 594 457 531 363
6.354237 1329704124.104815 510 544 599 465 537 363
6.392854 1329704124.113138 517 534 602 470 533 364
6.392854 1329704124.130577 520 529 606 464 524 365
6.437509 1329704124.141835 524 530 606 448 513 364
6.437509 1329704124.148160 526 528 611 440 503 362
6.470986 1329704124.155053 530 527 616 442 498 364
6.470986 1329704124.163079 531 523 617 440 493 362
6.512577 1329704124.171566 535 523 618 431 486 361
6.512577 1329704124.179899 535 523 619 421 480 359
6.553971 1329704124.191562 537 525 622 415 479 360
6.553971 1329704124.196515 541 523 623 411 473 361
6.595536 1329704124.204883 543 523 625 409 469 358
6.595536 1329704124.213229 540 520 626 405 464 357
6.642286 1329704124.221303 544 521 625 410 456 358
6.642286 1329704124.229737 546 520 623 412 448 358
6.690075 1329704124.237887 546 518 620 413 438 357
6.690075 1329704124.246249 543 516 618 410 430 356
6.712092 1329704124.254811 544 513 616 408 424 356
6.712092 1329704124.262786 544 512 614 411 420 356
6.753293 1329704124.271391 544 513 610 405 414 354
6.753293 1329704124.279740 546 512 607 397 407 354
6.794167 1329704124.299162 545 509 605 391 402 354
6.794167 1329704124.312503 545 512 605 392 398 354
6.837100 1329704124.314205 545 513 603 395 396 354
6.837100 1329704124.322049 548 511 601 394 395 355
6.878675 1329704124.329740 549 512 599 390 397 355
6.878675 1329704124.337967 550 511 599 390 401 356
6.911866 1329704124.346298 550 511 599 393 403 359
6.911866 1329704124.354614 553 511 598 397 404 360
6.953576 1329704124.362506 556 512 598 396 405 361
6.953576 1329704124.371258 557 512 599 394 408 361
7.001359 1329704124.379782 555 509 600 391 409 365
7.001359 1329704124.387831 556 508 599 390 403 370
7.033229 1329704124.396146 558 509 599 389 396 373
7.033229 1329704124.404395 557 510 599 387 393 374
7.079258 1329704124.412801 557 509 600 382 389 373
7.079258 1329704124.420991 558 508 600 380 382 375
7.112475 1329704124.429195 559 510 600 377 375 374
7.112475 1329704124.438017 560 512 599 371 373 374
7.152893 1329704124.446903 563 511 598 365 377 372
7.152893 1329704124.454149 564 510 599 362 383 370
7.194959 1329704124.462514 562 510 600 364 385 371
7.194959 1329704124.471021 558 512 599 367 383 371
7.236255 1329704124.479039 557 513 596 369 378 371
7.236255 1329704124.487737 557 508 594 365 377 372
7.271658 1329704124.502456 558 508 594 365 377 371
7.271658 1329704124.504375 557 508 594 368 377 371
7.311413 1329704124.515138 557 509 592 374 378 371
7.311413 1329704124.522811 556 510 592 376 382 371
7.352574 1329704124.533825 556 509 591 380 382 371
7.352574 1329704124.537251 557 507 591 383 379 370
7.394896 1329704124.545777 556 506 590 383 376 371
7.394896 1329704124.562742 557 509 590 382 375 370
7.436326 1329704124.571071 558 511 590 382 375 370
7.436326 1329704124.579292 558 510 589 380 376 369
7.482955 1329704124.587470 559 509 589 378 379 370
7.482955 1329704124.595575 562 510 590 375 384 371
7.519869 1329704124.604254 563 510 590 373 389 371
7.519869 1329704124.612481 564 509 591 371 392 368
7.552770 1329704124.621022 563 509 591 368 395 369
7.552770 1329704124.629140 561 509 591 369 395 368
7.598470 1329704124.637533 558 509 589 370 396 369
7.598470 1329704124.645861 554 509 587 371 394 369
7.636095 1329704124.654335 547 509 584 373 393 367
7.636095 1329704124.662521 539 509 580 373 387 366
7.677825 1329704124.670941 528 506 575 373 381 362
7.677825 1329704124.679532 524 503 568 370 378 362
7.711529 1329704124.687493 516 497 563 368 382 364
7.711529 1329704124.696497 505 497 558 367 387 369
7.752997 1329704124.704391 494 499 554 368 396 377
7.752997 1329704124.713432 487 497 550 371 404 386
7.793996 1329704124.724792 484 495 545 377 414 389
7.793996 1329704124.729102 491 483 544 385 427 390
7.834076 1329704124.737430 508 484 543 388 439 393
7.834076 1329704124.745895 544 506 551 388 449 401
7.877485 1329704124.754056 572 538 565 387 460 399
7.877485 1329704124.762184 607 535 581 377 478 380
7.910865 1329704124.771037 653 527 598 357 495 354
7.910865 1329704124.779173 688 529 610 327 493 329
7.952205 1329704124.789444 696 525 616 302 474 325
7.952205 1329704124.795707 703 533 618 315 456 336
7.993646 1329704124.805736 686 530 620 358 438 347
7.993646 1329704124.816751 666 523 619 393 422 358
8.034897 1329704124.820248 646 527 616 403 401 368
8.034897 1329704124.830524 636 526 610 399 374 371
8.076708 1329704124.837489 625 515 609 392 342 369
8.076708 1329704124.845694 618 510 607 384 315 370
8.110616 1329704124.853999 614 505 605 379 295 370
8.110616 1329704124.862160 613 502 603 368 283 371
8.152394 1329704124.870910 608 500 603 354 279 372
8.152394 1329704124.888333 608 503 606 338 287 369
8.193971 1329704124.895779 600 504 612 320 297 365
8.193971 1329704124.903714 597 503 622 305 295 361
8.235775 1329704124.912348 598 504 632 299 274 360
8.235775 1329704124.920772 601 511 639 300 245 360
8.277643 1329704124.929227 603 517 645 300 212 360
8.277643 1329704124.937438 603 515 648 295 171 359
8.311800 1329704124.945682 604 518 647 294 131 360
8.311800 1329704124.953566 603 527 641 298 94 362
8.353794 1329704124.962125 597 528 630 295 66 365
8.353794 1329704124.972395 589 525 620 293 46 367
8.395535 1329704124.979019 581 523 610 288 38 371
8.395535 1329704124.998744 567 525 597 291 36 375
8.440037 1329704125.003984 554 535 584 303 42 378
8.440037 1329704125.011836 546 538 572 314 52 378
8.476681 1329704125.020696 532 541 560 325 72 377
8.476681 1329704125.029008 516 544 551 334 102 376
8.518111 1329704125.037670 510 542 538 345 121 373
8.518111 1329704125.046597 502 535 524 353 137 374
8.552743 1329704125.053898 491 534 515 355 153 376
8.552743 1329704125.061821 485 534 505 361 173 375
8.591064 1329704125.070510 479 535 496 371 192 374
8.591064 1329704125.078910 470 535 487 380 220 374
8.634764 1329704125.087511 462 535 480 382 252 374
8.634764 1329704125.095645 463 539 477 378 287 377
8.675572 1329704125.104394 454 543 475 379 327 378
8.675572 1329704125.111733 452 546 477 382 368 379
8.716862 1329704125.121750 452 547 480 380 406 379
8.716862 1329704125.129003 451 548 487 378 440 381
8.750991 1329704125.137062 450 550 496 384 473 381
8.750991 1329704125.145580 456 551 503 392 500 382
8.792723 1329704125.155627 462 551 514 401 525 383
8.792723 1329704125.161690 464 554 524 407 547 382
8.841789 1329704125.170300 472 556 535 413 566 378
8.841789 1329704125.178864 480 555 546 424 585 375
8.875686 1329704125.187173 487 553 556 440 599 370
8.875686 1329704125.195444 495 550 566 443 603 367
8.917779 1329704125.212408 507 545 575 442 599 368
8.917779 1329704125.223251 513 545 585 444 595 369
8.963016 1329704125.229014 514 548 594 450 588 364
8.963016 1329704125.236835 520 539 602 449 583 358
8.992710 1329704125.245397 531 537 609 449 584 356
8.992710 1329704125.253881 536 537 613 448 577 351
9.036943 1329704125.262169 541 529 617 445 568 347
9.036943 1329704125.279326 545 524 620 441 556 347
9.076497 1329704125.287267 547 525 623 435 540 346
9.076497 1329704125.295584 554 523 625 438 528 345
9.116086 1329704125.304275 551 517 630 442 529 346
9.116086 1329704125.312506 554 512 628 434 523 348
9.151526 1329704125.320480 558 515 626 423 506 351
9.151526 1329704125.329202 558 516 628 418 490 352
9.192709 1329704125.337530 560 514 628 423 478 353
9.192709 1329704125.345651 561 513 624 423 461 354
9.234808 1329704125.354272 560 511 622 417 448 355
9.234808 1329704125.362618 560 510 619 414 438 356
9.281977 1329704125.370741 558 506 616 408 432 356
9.281977 1329704125.378963 557 502 615 403 428 356
9.319831 1329704125.387586 556 505 613 398 424 354
9.319831 1329704125.395688 558 507 611 392 417 352
9.351342 1329704125.404119 557 506 611 387 411 351
9.351342 1329704125.413625 556 506 610 381 402 353
9.393411 1329704125.420812 557 508 607 382 393 356
9.393411 1329704125.428768 558 508 605 384 386 357
9.434394 1329704125.437906 557 508 604 388 384 357
9.434394 1329704125.445476 558 508 602 389 382 356
9.476237 1329704125.454183 558 508 600 389 381 355
9.476237 1329704125.462433 558 508 598 392 378 356
9.518421 1329704125.470677 558 508 596 391 376 355
9.518421 1329704125.479030 559 508 596 386 376 355
9.555129 1329704125.491748 560 507 595 381 373 356
9.555129 1329704125.495467 560 507 595 376 370 358
9.591845 1329704125.504544 561 507 594 374 367 362
9.591845 1329704125.512561 561 508 594 375 367 365
9.634319 1329704125.520656 562 510 594 374 367 366
9.634319 1329704125.538459 562 511 593 373 368 368
9.676034 1329704125.546402 563 512 592 374 372 368
9.676034 1329704125.554072 562 512 592 375 375 367
9.715743 1329704125.563371 561 511 592 375 376 367
9.715743 1329704125.618573 561 512 592 376 375 367
9.750643 1329704125.620712 561 513 592 376 374 366
9.750643 1329704125.629092 561 511 592 375 374 367
9.792575 1329704125.637373 561 512 592 375 371 369
9.792575 1329704125.648487 560 511 591 373 370 369
9.834296 1329704125.653821 560 511 591 372 370 369
9.834296 1329704125.662822 561 511 592 373 372 370
9.875505 1329704125.670772 560 511 591 374 374 370
9.875505 1329704125.678889 561 511 592 374 377 370
9.917029 1329704125.689061 561 511 592 376 380 370
9.917029 1329704125.695837 561 512 593 377 382 371
9.958772 1329704125.703849 561 512 594 378 380 372
9.958772 1329704125.712575 562 511 594 380 378 373
9.999113 1329704125.720553 562 512 595 378 377 373
9.999113 1329704125.728846 564 512 595 378 377 373
10.033881 1329704125.737142 563 512 596 378 377 372
10.033881 1329704125.745879 564 513 597 378 378 372
10.075151 1329704125.753733 564 514 598 377 378 371
10.075151 1329704125.762553 564 513 598 379 378 371
10.117254 1329704125.781877 565 513 601 383 380 370
10.117254 1329704125.788783 566 512 600 385 381 370
10.170425 1329704125.795702 568 509 599 386 384 368
10.170425 1329704125.803980 566 510 598 386 388 367
10.191747 1329704125.812299 565 511 597 382 389 366
10.191747 1329704125.820831 560 509 595 379 386 367
10.233211 1329704125.828587 559 508 592 375 382 366
10.233211 1329704125.837182 553 506 589 373 379 367
10.275049 1329704125.849419 548 504 585 372 380 369
10.275049 1329704125.853890 539 502 580 373 383 371
10.317664 1329704125.862308 529 499 575 371 389 374
10.317664 1329704125.879627 517 493 571 368 394 376
10.360353 1329704125.887271 508 489 565 370 400 380
10.360353 1329704125.908730 501 488 560 371 406 383
10.398044 1329704125.932418 491 488 557 373 410 384
10.398044 1329704125.944693 489 492 552 375 414 387
10.433548 1329704125.949440 491 494 548 382 411 393
10.433548 1329704125.954231 490 496 544 388 409 400
10.475197 1329704125.962182 507 496 545 399 412 396
10.475197 1329704125.971542 532 500 554 411 429 383
10.516511 1329704125.978854 578 524 567 403 446 376
10.516511 1329704125.987230 622 558 576 378 457 367
10.558146 1329704125.995584 625 557 595 335 452 333
10.558146 1329704126.003499 670 510 602 308 440 323
10.595205 1329704126.012334 703 507 608 308 426 340
10.595205 1329704126.020536 693 539 617 337 422 357
10.633300 1329704126.033570 672 551 620 368 427 351
10.633300 1329704126.039391 658 541 619 387 433 349
10.675759 1329704126.045674 643 529 616 394 418 347
10.675759 1329704126.053599 629 523 613 395 389 350
10.716065 1329704126.062259 616 515 609 386 359 360
10.716065 1329704126.081664 607 507 607 371 334 372
10.758176 1329704126.087919 602 505 605 362 316 381
10.758176 1329704126.095506 601 504 603 356 302 386
10.797267 1329704126.103602 596 503 603 350 297 390
10.797267 1329704126.111908 589 501 608 341 301 385
10.833366 1329704126.120419 590 504 612 334 304 376
10.833366 1329704126.128857 592 505 617 324 299 365
10.875251 1329704126.136898 595 507 621 315 291 361
10.875251 1329704126.145363 595 513 626 311 281 360
10.916907 1329704126.153765 596 519 628 309 264 358
10.916907 1329704126.161744 593 521 628 302 244 355
10.959456 1329704126.170431 593 520 632 282 227 350
10.959456 1329704126.179042 590 517 633 262 206 347
10.991795 1329704126.189344 584 514 628 253 174 348
10.991795 1329704126.195395 584 522 622 255 143 351
11.033083 1329704126.204204 579 532 617 251 123 351
11.033083 1329704126.212237 572 533 613 243 114 351
11.074612 1329704126.220608 568 530 606 239 103 351
11.074612 1329704126.228575 560 528 599 249 91 353
11.113506 1329704126.240154 551 530 591 263 83 355
11.113506 1329704126.245284 543 528 578 275 70 357
11.156513 1329704126.253321 533 527 569 289 55 361
11.156513 1329704126.261670 533 531 554 310 34 364
11.191342 1329704126.270215 523 543 538 341 22 365
11.191342 1329704126.278534 506 555 517 373 25 365
11.233310 1329704126.286821 502 557 494 395 48 369
11.233310 1329704126.294972 485 554 479 406 96 372
11.272510 1329704126.303658 473 554 467 396 160 378
11.272510 1329704126.311458 464 549 457 380 218 377
11.314056 1329704126.320159 457 552 451 370 271 378
11.314056 1329704126.328619 450 554 450 362 322 378
11.355915 1329704126.336718 450 555 452 359 369 376
11.355915 1329704126.353251 451 558 459 357 415 373
11.397167 1329704126.356061 455 558 471 370 454 373
11.397167 1329704126.361197 458 559 485 389 484 373
11.430678 1329704126.369842 460 560 498 405 504 372
11.430678 1329704126.378380 463 560 509 419 516 374
11.473564 1329704126.386565 468 559 517 425 528 373
11.473564 1329704126.394505 469 560 529 440 551 374
11.514652 1329704126.403300 476 561 540 455 577 372
11.514652 1329704126.411323 480 556 553 464 599 367
11.551306 1329704126.419705 488 551 562 467 610 367
11.551306 1329704126.428074 501 552 567 469 610 368
11.607317 1329704126.436674 511 547 574 473 612 366
11.607317 1329704126.444332 512 536 581 475 620 363
11.632411 1329704126.453222 521 536 591 487 629 362
11.632411 1329704126.461021 530 537 594 507 632 361
11.674015 1329704126.469667 543 530 594 522 624 359
11.674015 1329704126.478477 544 518 599 510 616 358
11.724384 1329704126.486503 555 514 608 491 607 355
11.724384 1329704126.494361 562 514 615 484 594 352
11.763056 1329704126.503155 562 510 619 486 573 351
11.763056 1329704126.511201 566 506 619 478 549 349
11.791330 1329704126.519710 567 505 618 453 528 349
11.791330 1329704126.528092 572 505 622 430 511 350
11.832680 1329704126.537612 572 505 626 424 490 352
11.832680 1329704126.545869 574 504 626 419 470 352
11.874477 1329704126.554178 576 500 623 406 454 355
11.874477 1329704126.561271 575 501 624 395 446 357
11.915808 1329704126.569680 574 502 623 394 437 358
11.915808 1329704126.577887 574 503 622 394 429 358
11.957426 1329704126.589075 575 501 620 390 424 358
11.957426 1329704126.594649 577 503 621 384 418 359
12.018849 1329704126.603105 573 508 619 384 412 360
12.018849 1329704126.611562 570 508 614 388 405 363
12.031445 1329704126.619675 571 507 610 388 393 362
12.031445 1329704126.627998 570 505 606 380 384 361
12.073139 1329704126.637248 569 506 604 372 378 360
12.073139 1329704126.644641 570 509 602 372 373 361
12.115344 1329704126.653103 566 510 598 374 370 360
12.115344 1329704126.661358 566 510 595 375 373 359
12.161046 1329704126.669725 565 508 593 372 376 358
12.161046 1329704126.678113 565 508 592 371 380 357
12.198389 1329704126.686486 565 509 593 373 384 357
12.198389 1329704126.694701 563 510 592 379 387 356
12.231794 1329704126.703035 563 510 591 382 388 355
12.231794 1329704126.711087 565 508 590 382 388 356
12.272922 1329704126.719636 565 507 590 380 386 358
12.272922 1329704126.728116 564 507 590 384 383 360
12.314832 1329704126.736454 565 508 590 384 382 362
12.314832 1329704126.749147 566 508 591 383 383 362
12.361158 1329704126.753494 567 507 590 378 381 362
12.361158 1329704126.761199 567 506 591 376 379 362
12.408768 1329704126.770386 567 508 591 378 377 364
12.408768 1329704126.778417 567 509 590 379 379 364
12.440654 1329704126.787211 568 508 589 376 379 365
12.440654 1329704126.800604 569 508 588 373 377 366
12.477015 1329704126.805998 569 509 590 371 376 368
12.477015 1329704126.811746 569 511 589 370 377 369
12.515033 1329704126.819885 570 513 588 370 375 369
12.515033 1329704126.828608 569 512 589 368 374 368
12.555880 1329704126.837038 570 510 589 370 374 368
12.555880 1329704126.854999 571 510 588 373 375 369
12.598086 1329704126.862165 570 511 587 376 375 369
12.598086 1329704126.869926 571 514 587 378 374 370
12.630871 1329704126.878545 571 512 587 378 379 369
12.630871 1329704126.886876 571 511 588 378 379 367
12.674070 1329704126.895098 571 511 588 375 378 369
12.674070 1329704126.902909 574 512 588 376 380 370
12.714468 1329704126.911738 576 513 589 377 383 369
12.714468 1329704126.919851 577 513 591 375 388 370
12.756906 1329704126.931093 588 513 592 376 391 370
12.756906 1329704126.936543 599 514 596 376 398 371
12.797908 1329704126.955008 604 513 600 376 410 370
12.797908 1329704126.957515 599 513 602 377 420 366
12.831011 1329704126.975774 585 514 601 379 420 364
12.831011 1329704126.988337 578 515 596 383 410 362
12.872976 1329704126.994298 569 513 592 386 401 357
12.872976 1329704127.002740 556 506 588 386 389 355
12.914394 1329704127.010790 548 505 583 385 373 359
12.914394 1329704127.019043 537 505 576 382 357 363
12.953310 1329704127.027539 527 503 571 379 347 366
12.953310 1329704127.036433 516 503 566 378 346 367
12.992150 1329704127.043702 498 501 561 376 350 367
12.992150 1329704127.052161 491 495 556 372 352 367
13.031018 1329704127.060217 483 487 550 368 355 369
13.031018 1329704127.068419 473 486 545 360 359 375
13.072568 1329704127.076920 477 491 539 352 365 380
13.072568 1329704127.085117 487 497 536 345 376 385
13.114005 1329704127.093765 506 500 538 345 387 387
13.114005 1329704127.101753 535 503 546 357 402 390
13.156848 1329704127.111274 588 507 554 370 416 376
13.156848 1329704127.117958 651 537 571 356 444 370
13.204364 1329704127.127714 687 562 588 314 486 354
13.204364 1329704127.134662 699 549 608 289 506 339
13.230844 1329704127.142498 711 539 617 311 492 349
13.230844 1329704127.151511 702 554 621 345 455 360
13.272226 1329704127.159224 677 556 627 372 432 358
13.272226 1329704127.167902 650 547 624 385 414 353
13.313666 1329704127.186921 632 535 615 390 382 358
13.313666 1329704127.193089 620 523 608 388 343 364
13.357764 1329704127.200769 616 514 606 388 314 374
13.357764 1329704127.211272 615 515 606 389 301 387
13.397664 1329704127.217691 616 521 608 390 298 395
13.397664 1329704127.227247 604 522 614 384 304 390
13.431236 1329704127.246910 603 514 617 367 303 378
13.431236 1329704127.251379 608 504 620 348 296 371
13.474320 1329704127.259073 607 508 624 330 287 366
13.474320 1329704127.267848 605 518 631 318 267 358
13.514714 1329704127.276019 597 519 635 313 239 350
13.514714 1329704127.284490 599 519 636 308 205 346
13.556404 1329704127.292832 604 521 637 298 176 343
13.556404 1329704127.301064 601 521 634 284 145 343
13.598047 1329704127.308805 600 520 630 273 115 341
13.598047 1329704127.328555 595 521 624 260 83 340
13.630949 1329704127.338783 590 517 614 249 52 337
13.630949 1329704127.342346 583 518 603 251 31 342
13.672199 1329704127.350857 568 518 588 255 14 348
13.672199 1329704127.359196 559 519 574 268 7 357
13.713426 1329704127.367202 543 525 563 288 10 366
13.713426 1329704127.375558 530 538 547 308 23 369
13.764465 1329704127.384154 523 545 531 328 41 369
13.764465 1329704127.392177 505 546 512 347 65 368
13.795482 1329704127.400633 489 549 495 360 103 366
13.795482 1329704127.410117 477 547 484 363 150 366
13.836607 1329704127.417275 464 547 475 365 201 363
13.836607 1329704127.425886 460 550 472 370 249 362
13.878443 1329704127.434311 458 549 471 376 289 364
13.878443 1329704127.443234 454 547 472 376 322 366
13.911850 1329704127.450733 453 546 473 373 350 367
13.911850 1329704127.461197 453 548 474 369 374 366
13.953133 1329704127.467218 453 550 478 376 397 367
13.953133 1329704127.477262 456 550 482 385 418 370
13.994938 1329704127.487854 459 549 486 396 439 371
13.994938 1329704127.492702 458 551 491 400 463 372
14.043143 1329704127.501448 458 556 499 406 494 374
14.043143 1329704127.510286 462 556 505 418 529 377
14.073075 1329704127.517822 472 554 513 427 560 378
14.073075 1329704127.526882 477 552 525 427 593 378
14.113217 1329704127.534555 486 552 538 432 624 380
14.113217 1329704127.543244 499 552 553 441 650 382
14.155034 1329704127.551664 508 550 564 452 670 383
14.155034 1329704127.574568 519 546 571 463 677 381
14.196435 1329704127.577014 532 540 578 462 671 375
14.196435 1329704127.585260 543 533 595 460 666 370
14.230323 1329704127.594118 550 534 608 480 667 371
14.230323 1329704127.602012 565 534 608 498 650 373
14.271782 1329704127.610396 573 525 609 495 620 371
14.271782 1329704127.618744 578 519 614 468 601 368
14.314176 1329704127.626876 589 516 620 451 589 365
14.314176 1329704127.635396 593 514 622 448 572 364
14.355532 1329704127.643710 592 515 625 446 556 363
14.355532 1329704127.652233 594 512 625 436 535 365
14.397742 1329704127.660905 592 506 622 423 510 369
14.397742 1329704127.669006 592 504 623 416 485 372
14.439850 1329704127.679980 590 507 623 417 467 373
14.439850 1329704127.694451 585 510 622 413 452 372
14.478206 1329704127.706665 583 506 621 406 438 368
14.478206 1329704127.722481 582 505 619 401 427 365
14.512952 1329704127.736118 581 507 616 399 418 362
14.512952 1329704127.744264 579 508 615 398 411 362
14.554939 1329704127.752271 578 510 612 394 407 361
14.554939 1329704127.760648 576 510 610 390 405 361
14.596402 1329704127.768505 573 509 607 389 405 363
14.596402 1329704127.777334 573 507 604 386 402 364
14.630940 1329704127.785733 572 507 603 383 399 365
14.630940 1329704127.794310 570 508 601 378 394 365
14.671392 1329704127.802434 569 510 599 377 387 365
14.671392 1329704127.816274 568 510 596 378 379 364
14.712551 1329704127.821318 569 512 594 381 375 364
14.712551 1329704127.827304 569 514 591 383 373 365
14.754644 1329704127.835455 569 512 589 384 371 363
14.754644 1329704127.844469 571 511 588 379 370 365
14.795402 1329704127.852832 571 511 587 378 369 366
14.795402 1329704127.860215 572 513 585 378 368 366
14.837675 1329704127.868806 574 513 584 378 368 367
14.837675 1329704127.877505 575 512 583 377 370 368
14.870675 1329704127.885570 577 512 582 378 370 367
14.870675 1329704127.893882 576 513 582 376 371 367
14.912543 1329704127.902272 577 513 581 378 369 368
14.912543 1329704127.910284 577 512 580 377 369 367
14.954145 1329704127.918500 576 511 580 376 369 367
14.954145 1329704127.927490 576 512 580 375 370 367
14.995776 1329704127.935364 576 513 581 375 371 369
14.995776 1329704127.943938 574 513 581 377 373 370
15.037480 1329704127.957020 573 512 580 375 374 370
15.037480 1329704127.960413 574 512 581 372 374 371
15.070524 1329704127.968655 575 512 582 372 375 371
15.070524 1329704127.978168 576 513 583 373 378 371
15.112664 1329704127.985369 575 514 583 373 380 370
15.112664 1329704128.004749 575 513 584 371 381 368
15.153514 1329704128.010189 576 513 584 370 380 369
15.153514 1329704128.018065 576 514 584 370 379 368
15.196584 1329704128.026786 576 514 585 372 377 369
15.196584 1329704128.035310 576 513 584 375 376 370
15.237496 1329704128.043448 576 512 584 375 375 371
15.237496 1329704128.052149 577 513 585 374 375 372
15.278568 1329704128.060078 576 513 585 373 376 371
15.278568 1329704128.068109 576 513 584 372 374 372
15.312165 1329704128.079718 576 513 584 371 374 371
15.312165 1329704128.085044 576 512 584 371 374 371
15.353414 1329704128.093282 577 513 583 372 374 372
15.353414 1329704128.108846 576 513 584 373 376 372
15.395386 1329704128.111820 576 513 584 371 376 372
15.395386 1329704128.126124 576 513 584 371 376 372
15.437264 1329704128.129020 577 513 584 370 375 372
15.437264 1329704128.135146 578 514 584 370 376 371
15.476364 1329704128.143342 578 515 584 369 378 371
15.476364 1329704128.151845 578 514 586 367 378 372
15.516301 1329704128.160044 579 514 586 367 377 371
15.516301 1329704128.168176 577 515 587 366 376 372
15.553640 1329704128.176579 578 517 586 365 375 372
15.553640 1329704128.184935 577 516 586 362 375 370
15.595359 1329704128.193341 575 516 586 358 376 369
15.595359 1329704128.201572 573 516 585 355 374 367
15.636281 1329704128.210409 567 516 584 353 372 366
15.636281 1329704128.218041 559 515 582 352 371 365
15.678372 1329704128.226670 552 512 580 349 373 365
15.678372 1329704128.234944 545 510 576 345 376 367
15.711866 1329704128.243286 541 509 571 343 379 368
15.711866 1329704128.262161 532 506 569 341 385 371
15.753379 1329704128.268457 524 505 567 338 395 375
15.753379 1329704128.276264 512 503 563 338 404 378
15.795445 1329704128.285061 502 501 558 338 406 383
15.795445 1329704128.293291 497 498 554 340 405 388
15.836547 1329704128.301626 499 496 550 345 402 390
15.836547 1329704128.315972 508 495 546 351 397 397
15.882407 1329704128.321102 541 500 546 357 396 399
15.882407 1329704128.335709 584 521 550 363 406 390
15.911675 1329704128.347953 622 552 562 349 428 374
15.911675 1329704128.353314 650 564 571 326 441 358
15.952449 1329704128.359587 684 559 582 313 440 341
15.952449 1329704128.367867 690 556 595 322 436 337
15.995475 1329704128.376581 689 554 603 339 433 339
15.995475 1329704128.384491 684 552 607 358 429 351
16.035809 1329704128.393023 661 553 607 374 423 359
16.035809 1329704128.401292 642 555 606 379 402 357
16.077884 1329704128.409774 625 547 605 369 373 354
16.077884 1329704128.417687 624 535 603 355 337 366
16.111298 1329704128.427184 618 525 602 343 306 376
16.111298 1329704128.434530 622 522 606 335 289 383
16.152897 1329704128.443602 617 522 608 328 277 386
16.152897 1329704128.451401 611 526 609 322 261 382
16.200610 1329704128.459927 607 526 611 312 249 375
16.200610 1329704128.467727 604 527 618 302 245 371
16.236170 1329704128.476426 600 526 623 296 237 367
16.236170 1329704128.484540 599 526 627 293 220 364
16.271487 1329704128.493213 597 532 630 290 199 361
16.271487 1329704128.501100 595 535 632 290 172 362
16.311743 1329704128.509726 599 539 628 291 140 363
16.311743 1329704128.517558 594 542 623 291 106 362
16.353927 1329704128.526220 595 541 617 287 79 358
16.353927 1329704128.534594 592 545 611 288 60 359
16.396856 1329704128.543134 583 550 602 294 47 357
16.396856 1329704128.551129 574 549 588 308 34 355
16.436191 1329704128.559965 568 549 576 322 26 354
16.436191 1329704128.567903 551 551 566 332 30 354
16.477466 1329704128.576363 542 560 554 335 36 351
16.477466 1329704128.586334 534 558 535 340 39 346
16.518134 1329704128.599195 509 558 518 354 55 345
16.518134 1329704128.601729 497 551 507 367 100 341
16.551237 1329704128.609419 491 548 496 370 141 340
16.551237 1329704128.617437 486 547 485 368 162 340
16.592689 1329704128.626186 482 548 475 389 172 341
16.592689 1329704128.636699 472 546 469 400 199 346
16.634810 1329704128.642931 468 546 462 402 239 347
16.634810 1329704128.651111 469 542 458 401 278 352
16.681831 1329704128.659702 462 538 455 397 318 352
16.681831 1329704128.667361 458 539 458 396 365 356
16.716778 1329704128.676092 454 545 465 397 419 361
16.716778 1329704128.685041 455 547 476 399 470 367
16.751786 1329704128.692762 459 547 487 403 516 374
16.751786 1329704128.700886 464 546 500 400 557 382
16.793434 1329704128.709628 472 544 511 394 587 387
16.793434 1329704128.717675 475 543 526 381 613 390
16.835391 1329704128.726048 484 550 541 378 633 393
16.835391 1329704128.734559 498 557 553 378 650 396
16.876940 1329704128.742772 507 556 559 374 653 394
16.876940 1329704128.750987 513 551 575 375 656 390
16.922104 1329704128.763899 518 564 597 404 666 388
16.922104 1329704128.767797 533 576 602 434 660 383
16.952402 1329704128.776608 545 569 608 446 639 377
16.952402 1329704128.797665 542 555 626 438 628 375
16.993968 1329704128.800709 551 555 637 447 621 372
16.993968 1329704128.809302 560 556 638 471 601 370
17.036838 1329704128.819641 563 552 633 485 570 369
17.036838 1329704128.825861 562 545 634 481 545 367
17.070856 1329704128.834722 563 536 634 471 529 365
17.070856 1329704128.842534 568 530 630 466 509 366
17.113937 1329704128.850891 566 531 625 467 491 364
17.113937 1329704128.859715 562 531 621 464 479 360
17.152114 1329704128.867651 562 524 616 451 466 356
17.152114 1329704128.875482 564 517 610 440 449 354
17.193873 1329704128.884331 564 516 607 428 433 352
17.193873 1329704128.898814 562 518 607 420 427 347
17.235250 1329704128.913013 558 515 608 417 425 343
17.235250 1329704128.925535 558 513 607 418 426 345
17.282777 1329704128.939854 558 513 603 417 419 348
17.282777 1329704128.942332 559 515 599 415 413 351
17.318532 1329704128.950837 559 514 598 407 415 349
17.318532 1329704128.960942 558 511 598 399 416 348
17.351755 1329704128.984041 559 511 598 395 415 350
17.351755 1329704128.992553 558 513 597 392 413 351
17.393608 1329704129.001459 558 511 596 391 412 351
17.393608 1329704129.008971 558 510 595 392 411 355
17.435298 1329704129.017614 559 511 594 394 406 355
17.435298 1329704129.026243 559 512 594 397 404 358
17.476397 1329704129.034285 558 511 595 402 404 357
17.476397 1329704129.047829 560 510 594 405 407 355
17.518554 1329704129.050665 563 510 593 405 409 356
17.518554 1329704129.058654 564 509 592 403 404 357
17.572579 1329704129.067680 567 508 594 400 400 360
17.572579 1329704129.075646 569 510 595 394 399 362
17.593644 1329704129.084089 570 510 595 389 395 363
17.593644 1329704129.097661 572 510 595 383 389 364
17.634856 1329704129.102876 573 510 595 378 384 366
17.634856 1329704129.108678 575 511 593 377 378 369
17.676420 1329704129.117740 575 513 592 376 372 372
17.676420 1329704129.125741 574 513 591 374 368 370
17.717963 1329704129.134177 575 514 588 372 366 371
17.717963 1329704129.148770 574 516 587 370 366 370
17.751684 1329704129.151707 572 516 585 371 368 369
17.751684 1329704129.158757 572 517 583 372 370 369
17.793077 1329704129.167460 571 515 583 371 371 370
17.793077 1329704129.175471 571 515 583 373 374 370
17.839527 1329704129.183947 571 514 583 373 377 370
17.839527 1329704129.192230 570 514 583 375 378 371
17.870076 1329704129.200289 571 514 583 374 379 372
17.870076 1329704129.208813 571 514 584 374 381 371
17.922090 1329704129.217010 571 513 585 373 382 372
17.922090 1329704129.225625 571 514 586 373 381 370
17.951392 1329704129.233620 572 514 586 373 381 372
17.951392 1329704129.242089 573 515 587 374 380 372
18.004324 1329704129.250078 573 516 588 375 380 372
18.004324 1329704129.258205 572 515 588 375 380 372
18.035462 1329704129.266865 573 515 588 372 378 371
18.035462 1329704129.275376 573 516 588 373 376 372
18.071728 1329704129.283666 572 516 588 373 375 372
18.071728 1329704129.291863 573 515 587 373 373 373
18.117810 1329704129.300173 572 516 587 370 372 371
18.117810 1329704129.308409 571 517 587 371 372 370
18.151221 1329704129.316833 571 515 587 372 371 371
18.151221 1329704129.331476 572 515 587 373 371 372
18.201874 1329704129.333501 572 516 586 373 373 372
18.201874 1329704129.349665 573 516 587 375 376 371
18.234407 1329704129.360724 573 516 588 375 377 372
18.234407 1329704129.368738 573 514 589 375 376 370
18.275931 1329704129.375124 574 514 589 375 375 372
18.275931 1329704129.383581 575 515 589 375 374 372
18.326001 1329704129.391463 576 515 590 377 375 371
18.326001 1329704129.400157 575 513 590 379 377 374
18.351616 1329704129.408384 578 512 590 382 380 374
18.351616 1329704129.417000 582 512 592 385 385 375
18.392821 1329704129.425260 581 513 593 387 390 374
18.392821 1329704129.433818 582 512 593 386 390 373
18.434159 1329704129.441500 585 511 593 382 389 372
18.434159 1329704129.450483 586 511 594 378 388 373
18.478578 1329704129.458549 585 510 594 377 388 372
18.478578 1329704129.467028 582 513 591 378 385 372
18.517701 1329704129.475438 577 513 589 376 384 370
18.517701 1329704129.483832 571 512 585 375 385 370
18.550790 1329704129.491916 566 508 580 372 383 370
18.550790 1329704129.500433 558 505 575 370 381 372
18.592428 1329704129.508652 549 505 572 367 377 376
18.592428 1329704129.516970 536 506 570 367 375 377
18.633872 1329704129.525436 526 505 566 365 376 377
18.633872 1329704129.533697 513 505 562 365 381 376
18.679872 1329704129.541778 503 506 558 363 383 376
18.679872 1329704129.550528 498 505 554 360 381 374
18.717251 1329704129.558641 490 502 552 357 381 374
18.717251 1329704129.567074 485 499 550 355 383 374
18.759084 1329704129.575468 485 497 553 358 389 375
18.759084 1329704129.584157 499 497 553 359 393 377
18.792165 1329704129.592395 539 495 556 354 391 389
18.792165 1329704129.600532 571 501 562 339 382 410
18.837882 1329704129.609004 614 523 576 325 378 423
18.837882 1329704129.617401 659 555 591 322 392 407
18.875185 1329704129.626444 667 561 601 309 413 372
18.875185 1329704129.634306 682 551 609 303 426 351
18.916994 1329704129.642295 679 545 614 322 427 340
18.916994 1329704129.650891 681 546 615 344 430 342
18.954705 1329704129.665414 662 544 613 357 437 347
18.954705 1329704129.668672 642 537 607 367 432 346
18.993428 1329704129.675442 625 529 599 374 411 345
18.993428 1329704129.684049 616 522 596 372 387 349
19.035616 1329704129.692135 606 513 600 360 368 359
19.035616 1329704129.700646 604 512 606 350 354 366
19.075080 1329704129.710170 608 517 611 343 337 370
19.075080 1329704129.742500 610 521 623 329 323 368
19.116548 1329704129.754685 612 525 634 316 307 361
19.116548 1329704129.768803 616 529 642 306 283 353
19.159139 1329704129.782590 623 535 650 295 249 345
19.159139 1329704129.785214 629 537 659 289 210 337
19.191978 1329704129.791457 633 540 662 284 160 332
19.191978 1329704129.799621 631 539 655 282 98 329
19.234272 1329704129.808351 626 533 648 274 48 332
19.234272 1329704129.816450 619 533 636 268 12 329
19.275694 1329704129.824378 612 536 622 273 6 330
19.275694 1329704129.832863 595 536 602 286 6 336
19.317078 1329704129.841139 580 531 584 299 5 342
19.317078 1329704129.848944 562 533 568 321 5 345
19.357613 1329704129.857125 550 537 548 344 6 345
19.357613 1329704129.867451 547 543 526 368 5 345
19.399236 1329704129.873799 530 542 509 387 6 347
19.399236 1329704129.883394 509 536 494 386 9 350
19.432370 1329704129.890641 499 532 480 372 58 352
19.432370 1329704129.905793 486 533 465 357 116 353
19.474793 1329704129.927075 477 536 454 349 176 355
19.474793 1329704129.937666 465 536 448 348 242 361
19.515447 1329704129.940057 457 536 448 344 307 365
19.515447 1329704129.949520 457 538 451 344 363 369
19.557166 1329704129.956880 459 537 461 350 407 373
19.557166 1329704129.965095 459 540 468 358 435 381
19.598219 1329704129.973425 459 541 477 364 453 385
19.598219 1329704129.981575 459 543 486 375 464 388
19.631472 1329704129.990377 460 547 494 389 478 393
19.631472 1329704129.998817 462 552 503 402 495 397
19.672862 1329704130.006769 463 554 509 411 518 401
19.672862 1329704130.015288 467 554 515 412 541 401
19.721254 1329704130.023638 470 554 526 413 568 401
19.721254 1329704130.031644 475 559 538 415 598 401
19.758108 1329704130.041309 482 562 549 418 625 398
19.758108 1329704130.048619 491 560 554 419 638 394
19.791482 1329704130.056967 504 559 561 416 640 387
19.791482 1329704130.065679 511 564 575 423 646 385
19.833101 1329704130.073702 521 566 589 450 656 382
19.833101 1329704130.085619 525 559 594 474 655 378
19.874245 1329704130.091520 537 549 598 479 645 374
19.874245 1329704130.099587 547 548 606 476 630 371
19.916906 1329704130.107488 555 545 618 482 621 368
19.916906 1329704130.116238 558 537 625 479 610 362
19.954968 1329704130.129402 567 531 629 468 590 361
19.954968 1329704130.142916 571 534 632 470 562 362
19.991537 1329704130.156568 571 533 630 469 529 359
19.991537 1329704130.158569 572 524 625 459 499 356
20.030610 1329704130.165299 571 520 618 446 479 355
20.030610 1329704130.174494 570 526 618 446 474 353
20.078946 1329704130.182781 574 529 613 447 470 348
20.078946 1329704130.190504 577 520 610 439 462 346
20.115371 1329704130.199756 577 513 606 419 457 343
20.115371 1329704130.207606 579 512 605 400 455 345
20.157563 1329704130.220674 579 513 606 392 461 348
20.157563 1329704130.224410 579 511 608 386 466 352
20.190729 1329704130.232558 581 508 609 381 461 353
20.190729 1329704130.242373 576 505 610 377 452 357
20.232468 1329704130.257268 573 504 611 372 439 361
20.232468 1329704130.277703 573 505 609 365 423 365
20.276239 1329704130.282942 572 508 609 355 406 370
20.276239 1329704130.291388 574 510 607 350 385 373
20.318012 1329704130.299302 573 511 603 354 367 376
20.318012 1329704130.307462 575 517 599 362 355 378
20.358343 1329704130.315779 574 522 593 365 349 382
20.358343 1329704130.324282 573 522 591 365 348 379
20.403668 1329704130.333596 574 525 587 362 352 376
20.403668 1329704130.341255 570 528 584 361 354 375
20.432797 1329704130.351577 567 529 580 364 352 375
20.432797 1329704130.357716 566 526 577 373 352 375
20.474074 1329704130.366611 568 525 575 385 357 373
20.474074 1329704130.374379 570 530 572 389 366 369
20.515218 1329704130.383137 571 531 572 385 379 365
20.515218 1329704130.391387 572 530 573 379 392 363
20.552618 1329704130.399723 574 527 575 377 401 366
20.552618 1329704130.407706 573 527 577 381 405 370
20.590737 1329704130.416246 575 527 579 384 405 372
20.590737 1329704130.430812 576 527 579 384 405 372
20.632003 1329704130.433822 580 526 577 386 400 370
20.632003 1329704130.441363 582 526 580 392 398 368
20.673471 1329704130.449619 579 525 583 395 401 365
20.673471 1329704130.457597 581 523 584 393 399 363
20.715260 1329704130.466238 579 520 583 389 390 366
20.715260 1329704130.474503 581 520 584 389 384 370
20.756825 1329704130.482717 581 521 585 394 388 371
20.756825 1329704130.491439 580 522 586 386 397 369
20.798947 1329704130.499446 580 521 587 378 400 369
20.798947 1329704130.507560 581 519 587 376 396 372
20.832036 1329704130.515897 582 519 587 378 392 373
20.832036 1329704130.524619 584 521 587 376 389 376
20.875015 1329704130.543711 588 520 587 372 387 374
20.875015 1329704130.549542 590 518 587 368 384 373
20.914867 1329704130.557816 591 518 585 366 382 373
20.914867 1329704130.566120 591 522 584 364 384 371
20.956743 1329704130.574488 585 522 582 362 387 368
20.956743 1329704130.582641 577 518 579 363 387 369
21.009091 1329704130.596756 563 514 574 364 383 370
21.009091 1329704130.620292 549 512 569 364 380 368
21.032402 1329704130.634465 537 513 565 362 381 369
21.032402 1329704130.636963 523 513 563 362 388 366
21.073373 1329704130.641064 505 507 562 364 402 366
21.073373 1329704130.649399 498 505 559 367 417 366
21.114826 1329704130.657581 497 503 554 371 429 368
21.114826 1329704130.666032 491 501 551 370 434 377
21.156319 1329704130.674122 491 501 547 367 434 384
21.156319 1329704130.682555 497 502 546 364 429 387
21.197922 1329704130.690915 508 501 549 357 424 393
21.197922 1329704130.699265 541 509 554 345 424 394
21.241303 1329704130.707659 592 531 563 324 416 394
21.241303 1329704130.716152 640 545 585 292 406 393
21.277216 1329704130.724316 707 557 618 260 396 372
21.277216 1329704130.732651 772 565 664 244 388 340
21.314086 1329704130.741062 811 570 708 234 378 317
21.314086 1329704130.749127 804 578 734 234 329 306
21.356034 1329704130.757368 759 589 725 227 215 308
21.356034 1329704130.765923 732 570 716 211 77 327
21.397723 1329704130.774110 723 529 697 223 6 347
21.397723 1329704130.782435 729 516 666 278 5 361
21.432051 1329704130.791005 706 527 628 336 5 368
21.432051 1329704130.799845 676 528 594 370 5 362
21.472638 1329704130.807415 635 527 564 392 5 356
21.472638 1329704130.816420 600 535 540 405 5 353
21.514330 1329704130.824319 560 542 524 409 5 355
21.514330 1329704130.832079 543 538 509 405 16 359
21.555361 1329704130.840963 523 532 497 393 77 360
21.555361 1329704130.850404 505 534 494 385 135 361
21.590336 1329704130.857051 497 539 489 386 184 362
21.590336 1329704130.869848 496 534 490 383 223 365
21.632092 1329704130.873993 489 534 490 372 261 366
21.632092 1329704130.882521 487 535 491 359 291 370
21.671247 1329704130.890903 486 534 491 353 314 374
21.671247 1329704130.899174 481 535 492 352 332 376
21.713033 1329704130.906657 477 539 494 355 357 379
21.713033 1329704130.923548 473 545 499 363 390 376
21.754475 1329704130.926246 474 545 504 368 424 373
21.754475 1329704130.938446 477 542 509 372 451 375
21.796549 1329704130.941101 479 542 516 378 471 377
21.796549 1329704130.949027 479 547 525 387 489 376
21.838231 1329704130.956665 481 547 536 394 506 378
21.838231 1329704130.965660 483 547 544 394 520 380
21.871773 1329704130.974041 487 550 551 398 532 385
21.871773 1329704130.982027 492 556 560 408 542 384
21.913381 1329704130.990688 497 558 568 413 552 379
21.913381 1329704131.003157 499 552 577 416 560 373
21.955090 1329704131.008779 506 547 585 416 561 366
21.955090 1329704131.030463 513 547 589 418 559 362
21.999102 1329704131.033206 514 549 597 427 556 359
21.999102 1329704131.040478 519 549 604 431 559 353
22.030376 1329704131.048981 529 546 607 426 557 350
22.030376 1329704131.057274 532 539 608 421 547 351
22.072109 1329704131.065372 535 538 614 426 538 351
22.072109 1329704131.073911 534 541 621 435 541 349
22.118024 1329704131.084102 541 537 622 437 533 345
22.118024 1329704131.090628 544 529 621 428 508 344
22.155522 1329704131.099046 548 526 619 417 484 344
22.155522 1329704131.107030 547 529 619 413 472 343
22.197252 1329704131.115274 548 531 619 416 470 339
22.197252 1329704131.123817 547 529 618 421 463 338
22.239456 1329704131.143194 549 524 617 422 454 338
22.239456 1329704131.149037 552 520 616 423 450 340
22.272060 1329704131.157352 555 523 614 422 451 343
22.272060 1329704131.165546 556 519 612 417 449 345
22.313806 1329704131.173832 556 515 611 414 443 347
22.313806 1329704131.182191 558 514 609 419 437 351
22.357067 1329704131.190399 558 515 606 420 427 353
22.357067 1329704131.198434 560 515 605 414 422 354
22.396647 1329704131.207102 563 513 603 403 420 354
22.396647 1329704131.215519 566 513 600 397 420 354
22.438835 1329704131.223510 568 515 596 395 421 353
22.438835 1329704131.231802 568 514 596 391 424 353
22.478101 1329704131.240377 571 512 596 391 426 355
22.478101 1329704131.259515 573 515 598 400 427 358
22.524471 1329704131.265235 574 516 598 408 424 361
22.524471 1329704131.273575 573 514 595 409 421 363
22.555155 1329704131.282117 573 510 594 404 415 364
22.555155 1329704131.290330 574 509 594 395 410 366
22.596683 1329704131.298659 575 512 593 386 406 364
22.596683 1329704131.313693 575 512 593 384 398 364
22.638530 1329704131.316223 573 511 593 384 390 363
22.638530 1329704131.323460 572 510 592 381 385 365
22.671263 1329704131.331726 572 510 589 379 379 365
22.671263 1329704131.339967 574 512 589 379 378 367
22.713209 1329704131.348635 572 513 587 378 381 367
22.713209 1329704131.356781 572 512 586 377 385 367
22.756942 1329704131.372447 573 512 586 377 384 367
22.756942 1329704131.375144 572 512 586 379 386 367
22.796196 1329704131.381757 572 514 585 381 387 367
22.796196 1329704131.389911 571 513 586 380 388 367
22.838132 1329704131.398518 570 512 587 378 387 367
22.838132 1329704131.406292 570 512 586 375 384 367
22.871358 1329704131.414978 571 512 586 375 380 368
22.871358 1329704131.423455 572 513 586 374 378 368
22.912984 1329704131.431882 573 513 587 374 379 369
22.912984 1329704131.440020 574 513 587 373 377 370
22.954792 1329704131.448594 575 513 587 372 375 368
22.954792 1329704131.456434 575 514 587 372 374 367
22.996256 1329704131.465172 575 514 587 375 372 367
22.996256 1329704131.485209 575 514 586 378 374 369
23.033894 1329704131.489946 576 513 586 378 374 369
23.033894 1329704131.498500 575 513 586 378 373 369
23.071925 1329704131.506586 574 514 585 378 372 368
23.071925 1329704131.515209 574 514 584 379 372 369
23.113000 1329704131.523378 573 516 584 379 374 369
23.113000 1329704131.547904 573 515 584 374 375 367
23.154340 1329704131.562717 574 513 582 372 373 366
23.154340 1329704131.565409 574 512 582 373 373 366
23.196236 1329704131.573029 574 513 583 374 375 366
23.196236 1329704131.581366 574 515 583 374 381 367
23.238050 1329704131.589901 574 515 584 375 384 368
23.238050 1329704131.598668 573 513 584 377 383 369
23.280872 1329704131.606743 573 513 585 378 380 370
23.280872 1329704131.615402 572 513 585 378 376 371
23.312479 1329704131.623143 573 514 584 377 374 373
23.312479 1329704131.631478 573 515 584 377 372 372
23.354116 1329704131.639619 573 514 583 376 371 372
23.354116 1329704131.648074 575 514 583 375 371 372
23.396181 1329704131.660774 576 514 584 374 374 372
23.396181 1329704131.675123 578 515 584 371 377 370
23.437579 1329704131.698494 579 515 585 371 382 369
23.437579 1329704131.712837 580 516 586 371 384 368
23.472822 1329704131.715551 580 516 587 370 387 368
23.472822 1329704131.723124 580 516 587 370 386 367
23.515561 1329704131.731702 581 516 587 370 387 369
23.515561 1329704131.739952 584 518 588 370 387 368
23.568953 1329704131.748229 580 520 587 370 388 363
23.568953 1329704131.756646 578 520 586 370 387 359
23.595615 1329704131.764555 576 517 585 365 387 357
23.595615 1329704131.773161 572 514 584 360 387 357
23.641916 1329704131.781427 569 511 584 359 387 358
23.641916 1329704131.789904 565 511 582 363 385 360
23.677244 1329704131.798057 561 511 579 366 383 359
23.677244 1329704131.806692 553 512 575 367 381 360
23.713575 1329704131.814528 543 513 573 365 384 359
23.713575 1329704131.823239 534 509 570 365 386 360
23.759900 1329704131.831231 529 503 565 364 389 365
23.759900 1329704131.839754 524 499 560 363 391 372
23.795767 1329704131.847747 517 499 557 364 396 380
23.795767 1329704131.856556 507 498 553 364 398 386
23.837304 1329704131.864461 504 496 549 365 401 391
23.837304 1329704131.872807 509 489 546 367 405 398
23.874620 1329704131.883054 529 491 545 371 406 404
23.874620 1329704131.897935 551 506 552 368 413 401
23.924181 1329704131.909921 566 518 559 366 422 402
23.924181 1329704131.915847 637 543 567 364 432 390
23.953014 1329704131.922493 665 567 584 350 452 365
23.953014 1329704131.931045 669 568 597 329 461 344
24.000280 1329704131.942934 689 550 598 314 450 318
24.000280 1329704131.948165 696 533 604 317 428 315
24.038575 1329704131.956001 683 544 608 343 412 333
24.038575 1329704131.964350 653 551 605 367 400 346
24.078287 1329704131.972443 630 547 598 380 382 354
24.078287 1329704131.980947 613 538 590 378 353 360
24.118215 1329704131.990477 606 528 587 358 325 363
24.118215 1329704131.997802 606 523 586 342 308 371
24.163266 1329704132.012844 607 522 588 333 303 376
24.163266 1329704132.015611 608 522 593 332 307 379
24.194738 1329704132.022468 605 522 598 334 313 375
24.194738 1329704132.030824 609 526 610 331 313 368
24.236840 1329704132.039298 616 532 617 331 304 365
24.236840 1329704132.047376 617 534 626 328 285 361
24.278559 1329704132.056270 616 531 636 318 257 359
24.278559 1329704132.064545 622 530 638 306 213 356
24.311872 1329704132.072862 625 531 640 303 162 355
24.311872 1329704132.081031 624 530 638 299 121 349
24.353759 1329704132.089904 622 531 632 287 88 340
24.353759 1329704132.097636 620 535 627 270 60 335
24.395829 1329704132.111933 612 538 620 265 36 334
24.395829 1329704132.115099 603 534 609 274 16 337
24.437650 1329704132.123083 585 536 596 288 6 346
24.437650 1329704132.131396 574 535 581 301 6 351
24.478790 1329704132.139827 561 537 570 319 6 358
24.478790 1329704132.148064 546 537 552 339 6 363
24.511052 1329704132.156589 534 540 531 350 12 365
24.511052 1329704132.165155 515 539 515 355 29 365
24.557519 1329704132.173511 502 541 502 361 58 364
24.557519 1329704132.181744 493 540 487 362 97 362
24.593451 1329704132.189895 483 540 473 360 138 365
24.593451 1329704132.198061 471 543 464 352 187 367
24.635023 1329704132.218384 465 551 463 352 244 371
24.635023 1329704132.224069 459 551 464 359 298 375
24.676643 1329704132.231623 456 552 469 362 345 377
24.676643 1329704132.240412 456 554 477 362 381 383
24.717952 1329704132.248153 457 557 487 365 407 384
24.717952 1329704132.256508 456 555 498 368 426 386
24.751651 1329704132.274310 456 556 507 370 439 389
24.751651 1329704132.296510 454 559 518 375 452 389
24.793126 1329704132.299464 455 559 525 385 461 388
24.793126 1329704132.306571 456 560 527 392 463 387
24.837037 1329704132.314508 456 561 531 397 466 386
24.837037 1329704132.322737 457 565 540 404 476 385
24.885828 1329704132.331295 461 567 545 412 490 384
24.885828 1329704132.342954 465 565 549 413 499 382
24.910884 1329704132.347847 467 566 554 411 507 381
24.910884 1329704132.356225 470 565 557 408 514 380
24.955900 1329704132.364427 475 563 559 407 519 376
24.955900 1329704132.372386 479 561 564 407 524 373
25.002711 1329704132.380899 484 561 567 412 527 373
25.002711 1329704132.389267 488 562 569 421 530 372
25.040173 1329704132.397673 493 559 570 426 533 372
25.040173 1329704132.405787 495 554 574 424 537 372
25.077777 1329704132.415765 502 551 583 427 544 369
25.077777 1329704132.428276 506 553 586 442 550 367
25.111357 1329704132.431479 513 552 586 455 546 362
25.111357 1329704132.442210 519 547 590 457 542 359
25.152657 1329704132.447006 526 545 594 454 543 359
25.152657 1329704132.455050 534 542 595 453 543 358
25.195331 1329704132.463058 536 539 596 456 545 357
25.195331 1329704132.471287 535 534 602 459 549 354
25.236753 1329704132.479808 543 532 605 454 551 354
25.236753 1329704132.488037 554 532 605 446 545 357
25.278298 1329704132.495994 557 531 605 436 536 359
25.278298 1329704132.506118 557 526 608 426 529 360
25.312142 1329704132.512856 561 525 614 425 524 363
25.312142 1329704132.520767 566 528 613 424 513 366
25.352469 1329704132.529363 571 529 612 419 496 367
25.352469 1329704132.537553 571 525 613 409 482 368
25.394278 1329704132.548002 570 524 615 403 471 366
25.394278 1329704132.553958 573 524 617 404 455 365
25.435385 1329704132.562274 572 523 617 407 443 365
25.435385 1329704132.570590 574 523 615 403 434 367
25.477600 1329704132.579086 574 524 613 396 429 366
25.477600 1329704132.587262 574 525 611 390 423 364
25.515365 1329704132.597702 571 522 607 390 412 362
25.515365 1329704132.604067 566 519 604 394 401 358
25.563620 1329704132.612087 567 519 602 396 398 354
25.563620 1329704132.620413 568 520 596 397 396 354
25.593863 1329704132.628915 565 521 593 394 390 353
25.593863 1329704132.637144 564 524 592 395 386 352
25.637562 1329704132.645565 565 524 590 392 383 352
25.637562 1329704132.654189 567 522 588 385 382 353
25.679013 1329704132.662149 565 519 587 379 382 352
25.679013 1329704132.670656 564 520 594 390 386 351
25.726591 1329704132.679008 567 518 589 406 393 354
25.726591 1329704132.687260 571 518 585 406 392 360
25.753433 1329704132.695491 570 517 583 398 391 365
25.753433 1329704132.704151 571 516 582 393 392 368
25.793661 1329704132.712042 573 519 583 395 392 371
25.793661 1329704132.720849 574 518 583 395 394 371
25.835259 1329704132.729094 575 518 582 395 398 371
25.835259 1329704132.737404 576 519 582 395 404 371
25.876969 1329704132.745554 577 518 585 398 411 370
25.876969 1329704132.759985 577 519 587 401 412 372
25.910696 1329704132.761976 578 517 584 402 408 377
25.910696 1329704132.771404 577 515 583 396 398 382
25.951421 1329704132.784798 576 514 582 388 386 385
25.951421 1329704132.788390 576 514 582 381 378 386
25.996763 1329704132.795805 578 513 582 378 372 387
25.996763 1329704132.812551 579 514 582 375 372 386
26.034991 1329704132.813820 582 516 582 370 379 384
26.034991 1329704132.821086 583 517 583 361 388 382
26.077082 1329704132.829488 582 516 585 355 395 381
26.077082 1329704132.839629 579 514 586 356 397 383
26.113340 1329704132.846902 577 511 586 361 393 386
26.113340 1329704132.854806 579 513 584 368 389 386
26.151652 1329704132.866067 581 514 584 370 386 385
26.151652 1329704132.872108 580 512 582 367 383 383
26.193502 1329704132.880669 579 511 582 362 377 378
26.193502 1329704132.888791 583 509 582 361 375 377
26.236035 1329704132.897247 584 509 583 363 375 379
26.236035 1329704132.905064 581 510 582 363 375 382
26.282832 1329704132.921961 581 511 581 361 375 381
26.282832 1329704132.930448 581 514 582 356 375 380
26.311072 1329704132.938916 582 513 582 355 377 378
26.311072 1329704132.947172 581 512 582 354 377 376
26.352072 1329704132.955222 579 511 581 353 373 376
26.352072 1329704132.963423 578 511 579 355 370 377
26.394220 1329704132.971884 576 513 578 357 368 377
26.394220 1329704132.980193 573 514 576 359 366 377
26.435148 1329704132.988773 574 517 575 356 368 372
26.435148 1329704132.997431 570 516 574 350 371 369
26.476410 1329704133.005736 564 513 573 343 374 367
26.476410 1329704133.014034 559 511 572 339 375 366
26.519077 1329704133.022305 555 510 570 336 374 367
26.519077 1329704133.039144 554 511 566 336 378 370
26.554636 1329704133.055175 549 510 563 338 388 374
26.554636 1329704133.077722 543 509 559 339 402 379
26.596737 1329704133.080940 536 506 554 337 415 382
26.596737 1329704133.088881 526 504 551 331 427 387
26.634396 1329704133.097438 518 501 548 325 437 394
26.634396 1329704133.106127 513 496 543 319 440 403
26.675826 1329704133.125195 513 492 540 321 437 409
26.675826 1329704133.131148 531 497 543 321 432 419
26.717534 1329704133.139604 569 508 546 331 430 421
26.717534 1329704133.147395 607 531 554 340 429 408
26.752315 1329704133.156488 637 555 564 343 429 382
26.752315 1329704133.164385 667 572 572 357 426 354
26.792333 1329704133.172595 681 562 581 368 427 333
26.792333 1329704133.180280 699 548 584 373 427 327
26.833855 1329704133.189247 704 543 586 370 424 331
26.833855 1329704133.197119 688 545 590 372 419 339
26.875833 1329704133.205524 666 547 593 370 413 344
26.875833 1329704133.214007 649 548 595 371 398 346
26.917427 1329704133.222170 632 543 595 367 373 348
26.917427 1329704133.230546 624 534 593 354 340 359
26.950560 1329704133.238859 624 528 594 339 315 369
26.950560 1329704133.247397 626 523 594 332 293 375
26.992185 1329704133.255387 628 524 595 330 277 373
26.992185 1329704133.263702 623 527 597 330 264 369
27.033442 1329704133.272140 623 528 598 325 253 360
27.033442 1329704133.288981 623 530 600 317 237 350
27.075637 1329704133.302117 624 532 605 304 216 340
27.075637 1329704133.333598 623 535 611 293 190 334
27.117844 1329704133.346091 623 540 613 283 161 327
27.117844 1329704133.348729 621 539 613 277 131 322
27.150593 1329704133.363548 614 536 615 273 103 324
27.150593 1329704133.377565 605 536 614 268 77 327
27.202981 1329704133.380657 601 533 607 258 47 330
27.202981 1329704133.387891 591 531 599 255 25 334
27.233900 1329704133.398841 577 537 589 266 10 339
27.233900 1329704133.405963 566 549 578 292 6 341
27.279894 1329704133.413404 559 556 570 314 9 344
27.279894 1329704133.422383 547 551 558 329 19 344
27.324220 1329704133.430105 535 556 540 336 28 344
27.324220 1329704133.446522 521 553 523 347 43 342
27.357939 1329704133.461562 503 548 510 361 67 341
27.357939 1329704133.475709 497 544 499 363 96 342
27.390744 1329704133.497273 492 545 491 361 127 342
27.390744 1329704133.505112 485 546 480 362 154 343
27.432562 1329704133.513278 471 545 471 375 182 347
27.432562 1329704133.521943 470 553 469 382 227 352
27.474805 1329704133.541504 466 551 466 378 279 354
27.474805 1329704133.546648 460 547 466 376 332 359
27.512629 1329704133.555230 458 550 470 383 378 365
27.512629 1329704133.563035 460 555 479 384 417 372
27.557690 1329704133.571768 461 557 488 386 454 378
27.557690 1329704133.579708 461 561 500 390 488 382
27.590867 1329704133.587683 463 566 510 396 520 385
27.590867 1329704133.596581 467 566 519 402 547 385
27.632576 1329704133.604971 470 567 530 410 568 386
27.632576 1329704133.613107 476 568 539 420 583 388
27.674143 1329704133.621724 485 568 548 427 593 387
27.674143 1329704133.629701 494 566 558 435 601 381
27.721503 1329704133.638501 497 564 567 445 602 377
27.721503 1329704133.649285 505 562 574 452 597 374
27.758034 1329704133.663797 510 558 579 452 587 371
27.758034 1329704133.675908 516 556 591 457 577 365
27.791727 1329704133.681801 520 555 601 471 571 362
27.791727 1329704133.689637 526 551 604 471 558 356
27.834450 1329704133.695942 530 546 610 463 542 349
27.834450 1329704133.704982 530 547 613 462 530 346
27.874756 1329704133.723517 536 544 612 459 517 345
27.874756 1329704133.737982 537 536 612 447 510 344
27.916594 1329704133.755415 536 535 615 439 505 345
27.916594 1329704133.762923 535 536 615 445 504 344
27.958289 1329704133.771179 537 529 612 450 499 342
27.958289 1329704133.779943 540 523 610 445 496 344
28.000325 1329704133.791757 541 525 613 438 497 343
28.000325 1329704133.795940 541 524 614 436 497 341
28.032980 1329704133.804562 543 520 614 435 488 341
28.032980 1329704133.813140 543 516 614 433 476 343
28.078810 1329704133.820599 545 517 616 433 463 346
28.078810 1329704133.829737 545 518 616 436 453 344
28.116837 1329704133.837825 547 515 616 438 441 345
28.116837 1329704133.845909 548 514 617 437 432 342
28.158284 1329704133.854682 549 513 616 438 427 339
28.158284 1329704133.862843 550 511 615 434 421 338
28.203165 1329704133.870686 551 507 614 429 413 341
28.203165 1329704133.879640 552 506 614 424 406 343
28.232876 1329704133.887953 552 504 611 420 397 346
28.232876 1329704133.900104 555 504 609 413 393 350
28.274821 1329704133.904426 554 503 608 406 391 351
28.274821 1329704133.912879 554 503 607 400 385 353
28.316581 1329704133.920632 557 503 604 395 376 354
28.316581 1329704133.929360 556 504 602 389 371 356
28.357708 1329704133.939545 557 506 600 385 371 358
28.357708 1329704133.945682 556 507 600 382 371 357
28.395993 1329704133.954355 556 506 601 379 367 358
28.395993 1329704133.962795 557 506 602 379 357 362
28.432467 1329704133.970592 556 508 602 380 345 365
28.432467 1329704133.979446 555 509 599 381 339 370
28.474734 1329704133.987853 555 510 596 381 338 371
28.474734 1329704133.995749 552 512 595 382 343 370
28.516031 1329704134.004190 550 509 594 379 351 368
28.516031 1329704134.012746 550 508 594 379 361 369
28.557784 1329704134.020577 549 509 594 380 368 369
28.557784 1329704134.029272 550 510 594 380 373 370
28.597589 1329704134.038963 549 508 593 380 375 370
28.597589 1329704134.045659 549 507 594 376 376 369
28.632685 1329704134.054302 549 508 595 375 379 371
28.632685 1329704134.062873 550 509 595 375 380 373
28.674512 1329704134.070832 551 508 597 373 378 372
28.674512 1329704134.079398 551 508 599 373 375 372
28.717349 1329704134.088845 551 510 599 375 372 373
28.717349 1329704134.095863 552 510 600 376 372 374
28.763658 1329704134.104509 550 509 600 375 372 373
28.763658 1329704134.112773 551 510 602 376 370 372
28.791100 1329704134.121380 551 511 601 376 369 372
28.791100 1329704134.129392 551 510 601 375 368 373
28.832623 1329704134.139587 550 510 602 375 367 373
28.832623 1329704134.145851 551 511 603 375 363 373
28.878089 1329704134.154408 551 510 603 374 363 373
28.878089 1329704134.162813 550 511 603 371 364 373
28.915492 1329704134.170868 552 511 603 369 366 371
28.915492 1329704134.179383 554 511 604 369 370 371
28.955866 1329704134.187713 555 511 605 368 377 371
28.955866 1329704134.195579 559 509 608 373 386 371
28.992779 1329704134.204169 564 510 607 378 403 373
28.992779 1329704134.212715 566 513 606 383 422 376
29.031086 1329704134.220415 565 511 604 385 443 376
29.031086 1329704134.229261 563 507 600 380 458 376
29.073722 1329704134.239373 561 505 597 371 461 375
29.073722 1329704134.253815 562 506 594 365 456 370
29.110856 1329704134.268091 556 507 590 361 451 372
29.110856 1329704134.270994 550 508 584 363 442 372
29.157508 1329704134.278466 549 508 578 365 428 371
29.157508 1329704134.289385 540 506 572 363 419 369
29.190841 1329704134.295750 536 506 566 361 417 370
29.190841 1329704134.306793 530 506 559 362 414 369
29.232246 1329704134.312389 523 506 554 365 410 367
29.232246 1329704134.320882 511 506 551 365 412 366
29.275099 1329704134.328623 503 502 547 361 415 366
29.275099 1329704134.337497 504 496 543 360 423 366
29.315012 1329704134.345748 503 490 541 361 433 370
29.315012 1329704134.353841 498 493 541 361 442 379
29.351711 1329704134.362464 497 503 543 365 456 389
29.351711 1329704134.370773 492 508 546 371 472 397
29.390558 1329704134.378448 510 497 552 378 489 397
29.390558 1329704134.387294 552 485 558 373 495 399
29.431647 1329704134.395969 601 515 571 358 489 416
29.431647 1329704134.403718 628 560 590 343 479 402
29.473660 1329704134.418610 667 536 603 335 469 366
29.473660 1329704134.421284 700 516 607 329 449 347
29.514654 1329704134.428849 710 526 609 334 434 344
29.514654 1329704134.437967 704 538 612 344 416 347
29.556528 1329704134.445666 695 535 611 354 396 355
29.556528 1329704134.454489 685 530 609 357 376 364
29.599902 1329704134.462207 667 528 606 357 355 371
29.599902 1329704134.471603 651 525 603 355 334 373
29.630878 1329704134.478670 636 518 600 354 315 378
29.630878 1329704134.487166 625 514 600 343 295 378
29.679130 1329704134.495797 619 507 605 324 273 377
29.679130 1329704134.503517 623 501 611 313 248 375
29.725217 1329704134.519090 623 504 621 302 231 369
29.725217 1329704134.522479 621 505 629 287 219 361
29.752194 1329704134.528730 625 511 634 278 199 352
29.752194 1329704134.537014 626 517 640 274 171 347
29.801952 1329704134.545580 626 519 642 269 137 342
29.801952 1329704134.553553 625 521 641 263 107 342
29.831452 1329704134.561732 619 521 639 260 81 341
29.831452 1329704134.570173 614 523 637 260 60 345
29.872799 1329704134.578641 610 534 634 261 40 344
29.872799 1329704134.586957 598 535 632 257 27 347
29.914395 1329704134.595141 590 529 622 260 10 352
29.914395 1329704134.603779 585 530 604 275 6 356
29.956224 1329704134.611759 570 531 581 298 5 357
29.956224 1329704134.622522 558 534 558 319 5 354
29.991063 1329704134.628465 544 533 536 336 5 351
29.991063 1329704134.637148 536 537 517 350 5 346
30.038256 1329704134.645282 525 541 496 364 6 344
30.038256 1329704134.653502 516 545 480 377 22 348
30.071643 1329704134.661944 496 547 464 384 73 351
30.071643 1329704134.672459 487 545 448 391 128 351
30.113644 1329704134.678500 478 545 439 389 188 353
30.113644 1329704134.686852 470 546 436 383 250 355
30.155274 1329704134.695450 461 550 438 379 314 358
30.155274 1329704134.703889 460 551 442 382 373 360
30.196667 1329704134.712318 458 549 451 385 426 365
30.196667 1329704134.720569 459 549 460 391 467 371
30.234387 1329704134.729100 458 548 470 394 499 377
30.234387 1329704134.737028 458 549 484 394 524 381
30.271634 1329704134.745987 458 552 497 394 545 383
30.271634 1329704134.754499 459 557 509 401 569 379
30.312710 1329704134.762917 466 559 521 405 593 373
30.312710 1329704134.782825 471 558 534 405 620 366
30.355196 1329704134.788903 475 558 549 409 641 361
30.355196 1329704134.796063 487 558 561 417 653 359
30.397151 1329704134.804403 494 558 576 436 660 361
30.397151 1329704134.813426 503 553 587 444 657 357
30.430311 1329704134.821151 513 544 593 439 644 351
30.430311 1329704134.829367 518 541 602 438 632 348
30.472520 1329704134.837421 519 543 606 457 623 347
30.472520 1329704134.845921 530 535 611 466 616 340
30.513582 1329704134.854299 530 526 618 463 609 339
30.513582 1329704134.862767 535 523 619 461 590 337
30.558564 1329704134.871180 540 523 621 457 563 334
30.558564 1329704134.879640 539 517 630 455 545 334
30.597535 1329704134.887576 539 517 635 453 527 336
30.597535 1329704134.896064 548 516 634 440 501 337
30.630803 1329704134.904291 547 513 633 427 477 344
30.630803 1329704134.912774 541 511 634 415 460 349
30.677430 1329704134.922772 541 507 634 409 447 350
30.677430 1329704134.929669 541 508 633 406 432 352
30.713544 1329704134.937090 540 512 631 405 418 350
30.713544 1329704134.945713 540 512 629 404 407 347
30.756028 1329704134.954071 539 509 625 403 398 345
30.756028 1329704134.965757 534 507 622 402 389 345
30.797265 1329704134.970598 531 508 619 403 385 344
30.797265 1329704134.978924 531 507 616 404 381 346
30.830564 1329704134.986961 530 506 612 405 381 348
30.830564 1329704134.995197 530 509 610 404 383 350
30.872005 1329704135.003063 531 510 609 401 386 352
30.872005 1329704135.011813 534 510 608 397 385 352
30.923914 1329704135.019832 535 507 607 391 382 354
30.923914 1329704135.028148 537 506 607 388 378 356
30.951597 1329704135.036657 538 507 605 385 377 359
30.951597 1329704135.044759 539 508 604 386 376 363
31.002734 1329704135.052848 542 509 603 383 376 366
31.002734 1329704135.061499 543 508 603 376 373 367
31.031294 1329704135.079210 543 509 602 373 371 367
31.031294 1329704135.086167 543 510 601 371 370 366
31.074477 1329704135.094247 543 510 601 371 370 367
31.074477 1329704135.102697 542 511 600 375 371 367
31.114063 1329704135.110232 542 511 600 376 371 366
31.114063 1329704135.118457 541 511 600 377 370 367
31.155306 1329704135.129184 540 511 599 377 372 366
31.155306 1329704135.142098 540 511 600 378 373 367
31.197365 1329704135.143040 540 510 600 380 372 367
31.197365 1329704135.151459 540 510 600 377 371 368
31.230618 1329704135.159813 539 510 600 377 372 369
31.230618 1329704135.168399 540 511 600 376 373 369
31.279146 1329704135.176617 539 510 600 375 376 369
31.279146 1329704135.185401 540 510 600 372 378 370
31.313805 1329704135.193092 540 511 601 371 379 371
31.313805 1329704135.202502 540 512 601 373 380 372
31.355448 1329704135.209851 541 511 601 373 379 372
31.355448 1329704135.218235 541 511 601 372 377 371
31.397201 1329704135.226578 541 512 601 372 375 370
31.397201 1329704135.234862 541 511 601 373 375 371
31.437917 1329704135.243122 541 512 602 374 376 370
31.437917 1329704135.251464 541 512 602 373 378 370
31.472087 1329704135.259854 542 513 602 376 379 370
31.472087 1329704135.267987 542 513 603 375 378 370
31.513425 1329704135.276427 542 513 603 376 375 370
31.513425 1329704135.284829 542 513 603 376 377 370
31.555269 1329704135.293000 543 513 603 376 377 368
31.555269 1329704135.301670 543 513 603 377 379 368
31.596804 1329704135.309680 544 512 603 378 381 367
31.596804 1329704135.318181 543 512 603 377 380 366
31.637945 1329704135.326737 544 511 604 379 380 368
31.637945 1329704135.336462 544 511 605 379 382 367
31.671531 1329704135.343165 545 510 605 380 385 367
31.671531 1329704135.357729 546 508 606 383 388 367
31.713499 1329704135.359774 546 506 606 387 389 370
31.713499 1329704135.368616 547 505 606 389 393 370
31.755244 1329704135.380429 545 506 605 390 396 370
31.755244 1329704135.387858 544 503 605 386 396 369
31.806943 1329704135.394485 545 502 603 382 395 369
31.806943 1329704135.402453 544 504 600 379 394 371
31.830315 1329704135.411104 543 505 595 373 395 372
31.830315 1329704135.419474 543 506 590 365 399 371
31.874891 1329704135.427942 543 507 587 361 408 369
31.874891 1329704135.448258 537 507 580 358 424 368
31.913291 1329704135.452604 538 508 573 358 438 366
31.913291 1329704135.461384 537 508 566 355 455 363
31.954199 1329704135.469803 538 511 561 351 472 362
31.954199 1329704135.478223 527 508 558 348 488 359
31.996490 1329704135.486361 519 508 554 343 499 361
31.996490 1329704135.494520 516 508 551 338 499 361
32.038140 1329704135.503088 513 500 551 338 499 363
32.038140 1329704135.511128 509 491 551 337 497 372
32.070974 1329704135.519613 502 493 549 334 495 383
32.070974 1329704135.528350 504 497 551 336 495 393
32.119159 1329704135.536916 506 503 551 347 494 406
32.119159 1329704135.545071 516 503 555 364 493 417
32.164989 1329704135.560837 544 503 555 378 492 423
32.164989 1329704135.563963 588 512 561 380 489 419
32.190830 1329704135.570391 620 534 571 375 486 416
32.190830 1329704135.578661 655 548 581 383 473 404
32.235717 1329704135.586618 697 538 586 400 460 377
32.235717 1329704135.595365 699 525 598 390 460 358
32.270499 1329704135.603408 706 525 601 373 459 351
32.270499 1329704135.612303 703 531 601 370 441 352
32.311576 1329704135.620272 688 532 604 375 419 350
32.311576 1329704135.628929 670 525 605 382 399 352
32.353717 1329704135.636358 654 518 604 385 372 358
32.353717 1329704135.645415 644 511 604 385 341 368
32.394145 1329704135.653394 633 505 603 377 306 379
32.394145 1329704135.661852 625 499 600 363 273 386
32.430466 1329704135.670344 626 499 599 344 249 389
32.430466 1329704135.678922 623 493 600 319 228 388
32.470340 1329704135.686915 626 490 602 303 210 384
32.470340 1329704135.695542 628 491 607 290 209 378
32.510813 1329704135.703548 629 495 617 268 212 369
32.510813 1329704135.712487 630 495 624 238 198 356
32.553824 1329704135.720034 636 497 629 207 161 351
32.553824 1329704135.729859 642 504 632 186 128 353
32.595460 1329704135.736318 641 510 631 175 102 355
32.595460 1329704135.744789 641 518 630 172 81 357
32.636938 1329704135.754676 629 518 623 174 54 355
32.636938 1329704135.769669 619 518 618 191 33 360
32.678697 1329704135.792953 606 532 611 218 20 363
32.678697 1329704135.806906 602 548 604 246 7 361
32.711622 1329704135.811329 586 552 592 273 6 359
32.711622 1329704135.819305 576 543 568 299 5 355
32.752815 1329704135.827724 567 544 542 327 6 354
32.752815 1329704135.843022 541 552 525 353 6 347
32.794750 1329704135.845656 534 559 503 371 6 338
32.794750 1329704135.852899 529 554 474 400 6 334
32.835966 1329704135.861201 511 554 456 417 23 337
32.835966 1329704135.869522 491 555 442 414 86 338
32.873523 1329704135.877612 484 558 436 408 158 332
32.873523 1329704135.886146 473 554 434 398 233 335
32.911341 1329704135.894839 462 552 439 382 305 343
32.911341 1329704135.902924 455 555 454 371 372 351
32.951919 1329704135.911070 452 558 472 364 429 357
32.951919 1329704135.919452 451 557 490 360 471 365
32.995012 1329704135.927407 455 557 503 362 498 370
32.995012 1329704135.935824 458 559 515 361 515 372
33.031541 1329704135.945616 458 563 528 357 531 369
33.031541 1329704135.952705 459 569 538 362 548 366
33.080861 1329704135.961005 464 573 545 374 558 360
33.080861 1329704135.969391 470 573 549 386 562 357
33.111133 1329704135.977434 470 567 554 402 568 352
33.111133 1329704135.986046 471 565 560 423 583 345
33.152090 1329704135.994076 476 559 560 441 592 336
33.152090 1329704136.002504 476 548 563 456 593 332
33.194671 1329704136.011031 480 541 565 461 591 330
33.194671 1329704136.019185 483 538 576 465 597 330
33.241585 1329704136.027270 490 535 584 465 604 330
33.241585 1329704136.036366 497 526 587 459 595 326
33.278211 1329704136.044222 499 517 586 442 573 326
33.278211 1329704136.054670 501 516 593 416 554 327
33.311041 1329704136.061005 507 516 599 416 544 330
33.311041 1329704136.069402 511 514 605 421 523 334
33.353235 1329704136.077017 513 514 610 412 495 336
33.353235 1329704136.086351 512 521 615 412 479 340
33.394761 1329704136.094159 523 529 618 421 473 347
33.394761 1329704136.110119 530 531 620 433 468 347
33.441648 1329704136.123827 528 522 625 433 457 344
33.441648 1329704136.127516 526 518 628 419 447 344
33.474155 1329704136.135712 525 516 626 409 442 343
33.474155 1329704136.143955 526 516 624 409 439 342
33.511338 1329704136.152496 525 513 624 405 427 341
33.511338 1329704136.161066 525 513 624 393 419 342
33.561589 1329704136.169421 527 515 621 380 411 340
33.561589 1329704136.177676 526 517 615 376 405 339
33.594896 1329704136.185551 527 514 613 382 401 339
33.594896 1329704136.195754 520 512 615 385 398 350
33.636345 1329704136.202352 529 516 613 386 402 354
33.636345 1329704136.210738 534 519 609 387 401 351
33.673936 1329704136.219220 535 518 607 393 399 347
33.673936 1329704136.227270 532 514 608 395 398 351
33.714185 1329704136.235406 532 516 609 397 398 357
33.714185 1329704136.243889 536 516 609 398 395 359
33.760129 1329704136.252357 538 515 608 400 390 361
33.760129 1329704136.260428 537 513 608 397 382 360
33.794684 1329704136.269039 537 512 608 396 373 360
33.794684 1329704136.277223 537 513 608 394 370 360
33.831110 1329704136.285202 536 511 608 396 367 360
33.831110 1329704136.293662 536 508 606 393 363 361
33.879399 1329704136.302498 536 509 605 391 364 359
33.879399 1329704136.310442 535 511 605 390 366 360
33.923641 1329704136.324878 534 509 604 389 371 361
33.923641 1329704136.327814 534 509 603 384 374 363
33.952921 1329704136.335417 534 511 602 378 378 364
33.952921 1329704136.343845 533 511 601 375 382 365
33.994682 1329704136.352241 533 511 600 377 386 367
33.994682 1329704136.360351 533 511 600 376 387 369
34.036211 1329704136.368894 533 510 602 372 384 369
34.036211 1329704136.377094 535 512 604 369 382 369
34.077903 1329704136.385259 536 514 603 366 379 369
34.077903 1329704136.393627 535 512 602 364 376 368
34.111215 1329704136.402215 535 513 602 366 376 367
34.111215 1329704136.410417 536 513 602 368 377 368
34.160018 1329704136.418898 536 513 602 371 379 368
34.160018 1329704136.427323 534 512 602 373 381 366
34.194635 1329704136.435244 535 513 602 375 384 366
34.194635 1329704136.443693 536 515 602 377 384 367
34.235532 1329704136.452158 536 514 604 379 383 368
34.235532 1329704136.460612 536 513 604 377 382 368
34.287298 1329704136.468398 535 512 605 374 381 368
34.287298 1329704136.477602 537 514 605 373 381 368
34.311010 1329704136.485274 536 514 606 372 380 369
34.311010 1329704136.494652 537 512 605 373 377 370
34.354103 1329704136.502425 537 512 606 375 375 370
34.354103 1329704136.510209 536 512 606 374 376 373
34.393957 1329704136.524305 537 511 606 374 377 375
34.393957 1329704136.528383 540 512 604 372 381 372
34.435776 1329704136.535287 538 513 606 370 381 374
34.435776 1329704136.543480 543 514 605 369 382 370
34.477569 1329704136.552220 537 511 604 367 385 369
34.477569 1329704136.560208 538 509 602 366 389 369
34.512117 1329704136.568347 540 510 602 368 395 370
34.512117 1329704136.576993 542 512 603 370 401 374
34.552791 1329704136.585195 547 512 604 372 409 376
34.552791 1329704136.593297 552 511 605 377 422 379
34.594198 1329704136.602119 551 512 604 386 433 385
34.594198 1329704136.610188 550 511 600 392 435 384
34.635747 1329704136.618158 547 510 596 382 427 384
34.635747 1329704136.626867 542 507 591 369 414 378
34.688494 1329704136.635124 536 506 585 356 405 377
34.688494 1329704136.643171 532 509 579 350 400 376
34.718724 1329704136.652098 529 511 573 349 400 376
34.718724 1329704136.660268 522 513 568 348 410 374
34.752738 1329704136.668143 514 512 564 350 424 370
34.752738 1329704136.676976 510 509 559 354 436 368
34.793382 1329704136.685046 507 504 555 359 443 370
34.793382 1329704136.693133 511 504 552 366 451 374
34.835226 1329704136.701975 505 501 551 369 468 377
34.835226 1329704136.710183 501 498 548 369 488 380
34.877662 1329704136.722777 497 497 548 370 501 387
34.877662 1329704136.728862 505 495 551 377 508 396
34.918166 1329704136.735112 515 495 558 390 515 412
34.918166 1329704136.743228 518 509 566 401 519 425
34.951091 1329704136.752012 540 512 573 404 505 415
34.951091 1329704136.760242 572 511 572 394 472 415
34.992942 1329704136.776265 612 536 578 377 441 412
34.992942 1329704136.791092 626 551 583 377 428 394
35.034531 1329704136.793315 649 541 583 375 417 363
35.034531 1329704136.801559 697 508 584 369 412 343
35.075994 1329704136.810326 722 519 589 353 430 344
35.075994 1329704136.818403 715 544 597 356 461 344
35.117370 1329704136.831013 712 546 603 376 486 344
35.117370 1329704136.835459 702 537 602 386 493 341
35.151353 1329704136.842970 660 524 597 387 465 338
35.151353 1329704136.851726 639 513 591 389 414 349
35.192087 1329704136.860340 624 509 591 394 370 362
35.192087 1329704136.868400 620 505 591 396 345 374
35.234012 1329704136.876533 623 501 589 393 323 384
35.234012 1329704136.885333 623 500 588 384 308 388
35.275974 1329704136.893169 625 501 594 368 303 382
35.275974 1329704136.902389 624 499 603 344 301 374
35.311555 1329704136.910123 624 498 611 322 282 368
35.311555 1329704136.918271 627 501 618 312 245 368
35.351012 1329704136.926547 626 500 627 299 210 359
35.351012 1329704136.935171 626 498 632 283 175 356
35.392943 1329704136.943146 623 500 631 269 139 352
35.392943 1329704136.951071 620 501 631 255 105 354
35.434600 1329704136.960316 619 502 628 235 79 357
35.434600 1329704136.968299 617 505 622 227 54 359
35.475921 1329704136.976534 611 511 616 224 37 358
35.475921 1329704136.985060 599 509 606 230 29 359
35.520383 1329704136.993134 587 511 594 240 25 366
35.520383 1329704137.001031 571 516 586 251 28 367
35.552024 1329704137.010221 564 525 581 261 35 371
35.552024 1329704137.018193 545 525 572 275 44 374
35.592613 1329704137.026623 542 534 561 297 54 377
35.592613 1329704137.035259 530 541 550 314 59 377
35.634576 1329704137.043214 519 540 538 337 63 377
35.634576 1329704137.051097 513 543 525 368 63 378
35.674781 1329704137.059987 510 544 511 384 62 379
35.674781 1329704137.068169 490 547 492 392 72 377
35.719065 1329704137.076485 474 554 475 411 100 379
35.719065 1329704137.084863 478 563 462 431 145 380
35.751766 1329704137.093047 465 564 455 432 206 368
35.751766 1329704137.101313 450 566 453 427 272 360
35.790985 1329704137.110190 446 567 455 419 339 355
35.790985 1329704137.128436 445 566 461 405 404 356
35.832875 1329704137.135163 444 566 475 393 462 358
35.832875 1329704137.143398 446 568 493 397 517 358
35.874460 1329704137.151278 454 563 507 399 559 355
35.874460 1329704137.159658 461 559 521 399 589 350
35.916237 1329704137.168335 470 558 534 401 606 345
35.916237 1329704137.183754 478 558 549 413 614 340
35.950188 1329704137.197047 481 556 560 437 619 337
35.950188 1329704137.201229 487 547 567 453 612 330
35.992029 1329704137.209510 494 537 573 453 595 328
35.992029 1329704137.217873 500 532 577 448 572 328
36.033823 1329704137.226375 501 534 586 450 558 324
36.033823 1329704137.234555 506 531 600 460 560 320
36.075322 1329704137.242962 509 524 605 466 557 318
36.075322 1329704137.250996 515 518 603 463 542 320
36.117433 1329704137.259398 517 520 603 459 526 319
36.117433 1329704137.267328 518 518 612 458 522 316
36.150624 1329704137.276388 523 509 616 451 519 317
36.150624 1329704137.293404 527 502 616 438 511 320
36.192328 1329704137.300884 526 503 614 427 501 323
36.192328 1329704137.309138 527 505 612 422 496 326
36.233909 1329704137.317834 528 505 615 420 494 327
36.233909 1329704137.325455 531 503 616 413 487 329
36.275143 1329704137.333997 532 496 614 403 477 336
36.275143 1329704137.343288 531 498 616 398 471 346
36.319332 1329704137.350656 532 501 619 396 470 351
36.319332 1329704137.359145 533 498 623 392 463 353
36.350583 1329704137.367443 534 495 628 385 450 356
36.350583 1329704137.375802 538 496 630 384 435 357
36.391622 1329704137.384089 537 499 631 384 421 358
36.391622 1329704137.392615 537 502 631 386 410 359
36.436545 1329704137.400750 537 500 629 386 400 355
36.436545 1329704137.409403 539 500 626 387 390 354
36.474985 1329704137.417474 539 502 623 387 380 355
36.474985 1329704137.426025 537 502 620 390 375 357
36.516531 1329704137.434096 539 504 616 389 369 359
36.516531 1329704137.443618 538 503 614 390 360 359
36.558239 1329704137.450887 540 503 610 385 356 362
36.558239 1329704137.459163 541 506 608 382 356 362
36.596452 1329704137.467630 541 506 606 382 357 364
36.596452 1329704137.476061 540 505 604 379 356 365
36.633453 1329704137.500599 540 505 602 375 355 366
36.633453 1329704137.515382 540 504 602 374 355 365
36.675218 1329704137.517833 540 505 601 376 354 367
36.675218 1329704137.525810 539 505 598 378 354 367
36.718190 1329704137.534232 537 505 596 380 355 369
36.718190 1329704137.542926 536 504 596 376 361 368
36.758439 1329704137.550944 536 502 597 374 368 367
36.758439 1329704137.559336 535 502 597 374 375 369
36.798963 1329704137.567410 535 504 598 374 375 369
36.798963 1329704137.576012 535 503 600 375 374 370
36.835893 1329704137.586154 535 503 600 371 375 370
36.835893 1329704137.592589 537 504 601 370 377 371
36.874969 1329704137.604261 536 504 602 373 380 371
36.874969 1329704137.609815 535 505 603 373 379 371
36.918711 1329704137.618044 537 505 603 373 375 372
36.918711 1329704137.626638 536 507 605 373 372 370
36.959864 1329704137.634630 536 507 606 375 374 371
36.959864 1329704137.643054 536 507 606 379 376 371
37.002283 1329704137.651645 535 506 605 380 375 372
37.002283 1329704137.660187 535 506 605 379 375 371
37.033034 1329704137.668700 535 506 606 378 374 372
37.033034 1329704137.676710 536 506 607 378 375 372
37.074962 1329704137.684240 535 506 607 378 373 370
37.074962 1329704137.692478 535 506 606 376 370 369
37.116264 1329704137.701015 534 505 605 374 368 369
37.116264 1329704137.711638 534 506 605 373 367 370
37.158281 1329704137.717410 535 505 605 372 365 370
37.158281 1329704137.725975 535 505 605 372 365 371
37.191180 1329704137.734130 533 505 603 374 364 369
37.191180 1329704137.742592 533 504 603 375 365 370
37.237472 1329704137.750924 532 504 601 374 366 372
37.237472 1329704137.775795 532 504 601 374 364 371
37.274919 1329704137.783679 532 504 599 377 365 371
37.274919 1329704137.792140 531 504 599 378 370 371
37.316107 1329704137.799906 530 504 599 378 372 370
37.316107 1329704137.808595 530 503 599 378 375 370
37.357672 1329704137.816570 531 503 599 378 373 371
37.357672 1329704137.824646 531 505 601 379 374 372
37.390901 1329704137.832880 532 505 602 380 376 372
37.390901 1329704137.840997 532 504 602 377 379 372
37.432620 1329704137.849172 532 503 602 373 379 371
37.432620 1329704137.857724 532 504 603 373 380 372
37.474495 1329704137.865995 532 504 605 374 383 371
37.474495 1329704137.874484 534 503 606 373 384 371
37.515948 1329704137.883822 534 504 608 373 386 373
37.515948 1329704137.890702 535 504 608 375 386 373
37.557331 1329704137.899098 537 505 610 373 387 371
37.557331 1329704137.907496 538 504 612 371 391 371
37.590860 1329704137.915826 541 505 613 370 397 370
37.590860 1329704137.924228 544 506 613 371 407 369
37.632588 1329704137.943707 544 506 613 371 419 367
37.632588 1329704137.949565 546 506 610 366 431 364
37.674434 1329704137.957433 549 508 603 356 443 362
37.674434 1329704137.966124 549 506 596 346 453 359
37.715522 1329704137.974015 548 507 586 339 461 360
37.715522 1329704137.982516 540 508 577 336 471 356
37.757017 1329704137.996612 532 505 569 335 475 355
37.757017 1329704138.018554 522 502 562 335 470 357
37.790454 1329704138.031514 518 502 556 336 459 361
37.790454 1329704138.033385 514 502 552 340 451 363
37.832539 1329704138.041395 508 506 551 343 446 364
37.832539 1329704138.049795 507 510 552 345 444 362
37.873914 1329704138.058422 508 506 555 349 442 362
37.873914 1329704138.066546 505 498 557 349 437 361
37.915344 1329704138.075407 505 492 558 343 433 365
37.915344 1329704138.083174 497 492 560 340 432 378
37.950638 1329704138.091108 489 497 562 343 430 392
37.950638 1329704138.099902 495 495 567 356 426 402
37.990578 1329704138.108193 520 499 567 366 413 411
37.990578 1329704138.116340 549 516 574 365 398 418
38.031888 1329704138.124827 596 525 587 358 390 408
38.031888 1329704138.133562 660 544 597 352 397 384
38.073947 1329704138.141556 680 571 620 352 432 362
38.073947 1329704138.150135 691 563 636 359 476 338
38.121833 1329704138.159005 706 550 649 371 488 330
38.121833 1329704138.167294 706 550 658 404 481 348
38.156574 1329704138.177499 684 546 653 429 451 364
38.156574 1329704138.183939 651 541 643 425 392 372
38.198804 1329704138.191761 634 535 629 411 331 369
38.198804 1329704138.200571 619 526 615 407 289 368
38.240063 1329704138.208627 612 515 609 405 268 365
38.240063 1329704138.216986 601 504 608 397 268 366
38.273530 1329704138.236864 604 502 607 384 275 364
38.273530 1329704138.251288 605 500 617 357 288 364
38.315197 1329704138.258085 610 503 632 317 296 361
38.315197 1329704138.267155 620 505 646 280 276 349
38.358199 1329704138.275295 626 508 662 253 241 343
38.358199 1329704138.283425 628 507 675 224 201 341
38.390746 1329704138.292115 629 502 678 206 143 344
38.390746 1329704138.300858 630 500 672 205 74 350
38.432060 1329704138.308725 626 507 660 213 20 355
38.432060 1329704138.317396 619 512 638 224 6 361
38.473904 1329704138.325507 610 515 618 240 5 363
38.473904 1329704138.334331 595 522 596 262 5 365
38.514709 1329704138.351592 580 532 578 289 5 366
38.514709 1329704138.367113 569 544 560 312 5 363
38.555807 1329704138.379187 564 542 535 333 5 358
38.555807 1329704138.385677 547 542 512 354 5 359
38.603683 1329704138.392036 528 542 489 378 5 356
38.603683 1329704138.400563 527 547 461 396 6 351
38.629843 1329704138.408629 512 550 436 409 17 349
38.629843 1329704138.428688 487 547 415 418 89 350
38.671816 1329704138.433756 482 552 402 418 181 352
38.671816 1329704138.442176 471 551 396 408 275 342
38.713516 1329704138.450195 461 545 405 396 366 345
38.713516 1329704138.458937 460 551 426 391 445 352
38.755296 1329704138.466984 462 553 451 393 506 360
38.755296 1329704138.475849 461 552 474 398 548 366
38.797172 1329704138.483506 462 550 494 399 574 373
38.797172 1329704138.492291 466 549 508 400 583 379
38.830661 1329704138.500522 470 552 523 397 591 381
38.830661 1329704138.508569 472 557 536 396 599 380
38.878013 1329704138.516935 477 561 555 406 610 370
38.878013 1329704138.525896 480 562 565 417 613 365
38.914352 1329704138.533212 484 558 571 425 602 362
38.914352 1329704138.541820 490 558 575 434 587 356
38.955939 1329704138.549987 490 559 586 448 587 349
38.955939 1329704138.558144 490 550 595 467 595 342
38.997441 1329704138.566693 498 539 595 476 586 341
38.997441 1329704138.597527 505 532 594 478 569 340
39.030852 1329704138.610810 509 529 601 477 559 335
39.030852 1329704138.616610 506 520 612 477 566 332
39.074903 1329704138.624854 509 513 618 481 563 331
39.074903 1329704138.633395 518 508 618 473 541 332
39.116376 1329704138.653355 520 505 622 462 520 333
39.116376 1329704138.658497 521 506 627 444 512 335
39.158833 1329704138.666427 523 503 630 428 504 334
39.158833 1329704138.674958 527 499 631 416 487 336
39.190036 1329704138.683280 527 499 634 415 472 339
39.190036 1329704138.691180 527 500 634 418 464 342
39.230936 1329704138.704203 530 500 633 419 453 345
39.230936 1329704138.708396 531 497 632 416 439 346
39.273076 1329704138.716361 529 497 632 409 422 345
39.273076 1329704138.724943 529 496 629 403 409 344
39.314359 1329704138.733464 527 496 626 401 398 346
39.314359 1329704138.741411 527 497 623 402 390 347
39.356298 1329704138.749995 526 497 620 403 384 349
39.356298 1329704138.758430 525 498 617 401 378 351
39.397547 1329704138.766126 526 498 615 397 375 351
39.397547 1329704138.774908 525 497 613 394 375 352
39.430879 1329704138.783401 527 497 613 387 377 352
39.430879 1329704138.791207 528 498 611 379 376 356
39.472723 1329704138.800041 530 500 610 373 373 358
39.472723 1329704138.809960 532 501 609 370 372 361
39.514526 1329704138.816368 534 502 607 368 371 362
39.514526 1329704138.825001 536 502 606 367 371 364
39.555562 1329704138.833304 535 503 605 368 370 364
39.555562 1329704138.841336 534 504 603 369 367 365
39.597511 1329704138.851851 533 501 603 370 363 363
39.597511 1329704138.865051 533 503 601 373 362 364
39.630387 1329704138.887286 531 503 601 375 362 364
39.630387 1329704138.891510 532 503 600 376 367 365
39.678113 1329704138.899864 530 505 599 376 372 365
39.678113 1329704138.908406 530 502 600 375 372 365
39.716548 1329704138.916498 531 504 601 375 375 366
39.716548 1329704138.925413 530 503 600 374 378 366
39.755626 1329704138.937833 531 502 601 373 378 367
39.755626 1329704138.941273 530 502 602 373 377 367
39.799035 1329704138.949542 531 504 602 373 378 368
39.799035 1329704138.957792 531 504 603 374 380 369
39.830415 1329704138.966501 531 503 604 375 382 370
39.830415 1329704138.974340 531 504 604 375 381 369
39.872348 1329704138.983084 531 505 604 373 380 368
39.872348 1329704138.991261 531 504 604 374 379 368
39.913765 1329704138.999703 531 504 604 376 377 368
39.913765 1329704139.008184 532 503 605 377 376 370
39.955115 1329704139.016338 533 505 605 375 376 371
39.955115 1329704139.024371 532 505 606 374 377 370
39.997290 1329704139.032730 532 504 606 375 377 370
39.997290 1329704139.042534 531 504 605 376 376 370
40.030517 1329704139.049364 531 504 605 376 375 370
40.030517 1329704139.057913 531 504 605 379 373 371
40.071651 1329704139.066434 530 504 605 380 369 371
40.071651 1329704139.074304 530 503 603 379 368 372
40.111835 1329704139.082851 530 503 604 379 371 372
40.111835 1329704139.091138 531 502 604 381 374 372
40.154941 1329704139.099589 531 502 604 382 377 373
40.154941 1329704139.107767 531 501 605 380 376 374
40.197052 1329704139.116434 531 501 606 381 375 374
40.197052 1329704139.124089 532 501 606 378 376 374
40.238661 1329704139.132757 531 500 606 379 375 374
40.238661 1329704139.154239 531 500 606 378 374 375
40.281555 1329704139.157404 531 501 607 378 373 375
40.281555 1329704139.166112 531 501 606 379 374 377
40.313845 1329704139.174607 531 500 606 379 373 378
40.313845 1329704139.184640 530 500 607 377 375 377
40.355143 1329704139.190967 530 500 606 377 377 377
40.355143 1329704139.205511 531 500 607 374 378 376
40.396327 1329704139.207970 530 500 607 373 382 376
40.396327 1329704139.223120 531 503 606 371 386 375
40.438354 1329704139.236722 532 505 604 366 392 373
40.438354 1329704139.240941 533 507 600 361 397 369
40.471537 1329704139.249219 531 508 597 357 405 366
40.471537 1329704139.257573 530 507 592 355 415 363
40.513473 1329704139.265976 529 506 588 350 430 360
40.513473 1329704139.274512 527 507 584 344 444 359
40.554898 1329704139.282564 526 507 579 338 451 358
40.554898 1329704139.291016 521 507 574 328 451 356
40.596468 1329704139.299500 517 504 568 320 454 356
40.596468 1329704139.318988 515 500 562 312 461 352
40.637049 1329704139.324078 510 499 557 306 465 354
40.637049 1329704139.333911 505 497 553 301 472 360
40.671074 1329704139.340961 499 497 554 296 483 365
40.671074 1329704139.349178 491 497 553 293 497 367
40.713126 1329704139.357437 492 496 550 290 502 373
40.713126 1329704139.372548 504 488 548 298 497 384
40.754489 1329704139.386435 509 487 549 313 488 404
40.754489 1329704139.390952 520 501 554 330 479 424
40.798894 1329704139.399125 549 525 559 349 471 428
40.798894 1329704139.407290 610 537 566 355 469 416
40.837092 1329704139.415740 657 548 578 351 477 410
40.837092 1329704139.424198 685 579 591 355 485 392
40.870817 1329704139.432593 694 572 600 371 474 364
40.870817 1329704139.441114 716 551 608 380 467 357
40.912269 1329704139.449296 714 554 619 392 478 362
40.912269 1329704139.457071 697 561 626 403 478 367
40.960440 1329704139.465951 679 556 628 408 442 375
40.960440 1329704139.474526 645 538 629 402 381 376
40.997057 1329704139.488605 628 520 625 387 322 375
40.997057 1329704139.493552 623 513 618 370 274 380
41.032524 1329704139.516541 618 511 612 363 237 387
41.032524 1329704139.523713 614 512 607 361 222 390
41.070491 1329704139.532287 612 515 607 355 229 387
41.070491 1329704139.540903 610 520 611 343 241 378
41.112675 1329704139.549178 609 517 616 330 238 370
41.112675 1329704139.557645 611 515 622 321 223 362
41.154483 1329704139.565523 612 517 628 310 201 358
41.154483 1329704139.573853 609 517 631 303 170 357
41.195838 1329704139.582102 606 517 634 299 136 359
41.195838 1329704139.590646 603 519 636 291 107 360
41.237353 1329704139.599742 602 518 633 278 73 360
41.237353 1329704139.612656 601 518 626 268 38 361
41.270265 1329704139.617672 593 521 621 266 13 363
41.270265 1329704139.640762 584 527 616 272 6 363
41.311890 1329704139.649743 579 531 605 282 6 362
41.311890 1329704139.657198 571 533 587 296 6 364
41.353846 1329704139.666312 558 536 562 305 5 369
41.353846 1329704139.674050 534 541 540 317 5 364
41.394629 1329704139.682853 520 539 521 337 5 361
41.394629 1329704139.690033 513 546 499 350 6 357
41.435692 1329704139.700578 501 539 471 358 30 355
41.435692 1329704139.707573 485 541 448 364 69 354
41.484230 1329704139.715906 473 546 429 374 131 351
41.484230 1329704139.724396 463 542 415 386 210 349
41.510834 1329704139.736762 457 541 410 391 296 348
41.510834 1329704139.742352 455 539 415 392 374 351
41.552540 1329704139.748961 455 540 432 392 441 357
41.552540 1329704139.756999 456 540 455 388 494 369
41.594723 1329704139.765777 456 543 478 383 537 379
41.594723 1329704139.784935 459 545 494 380 559 383
41.636858 1329704139.792530 461 549 509 374 572 382
41.636858 1329704139.798929 465 554 522 369 581 379
41.677998 1329704139.807196 464 558 539 370 595 373
41.677998 1329704139.815320 471 562 552 387 609 370
41.710959 1329704139.824129 478 562 562 405 612 364
41.710959 1329704139.832514 485 562 570 421 608 360
41.753227 1329704139.840411 486 558 583 425 607 357
41.753227 1329704139.848853 490 552 597 438 605 351
41.795202 1329704139.857214 497 547 603 456 598 345
41.795202 1329704139.865547 503 541 605 469 580 341
41.836509 1329704139.874059 504 534 614 473 563 337
41.836509 1329704139.882313 506 528 619 469 550 334
41.871868 1329704139.890229 513 522 620 464 534 333
41.871868 1329704139.898871 513 518 623 457 514 328
41.913928 1329704139.907246 516 519 624 452 499 325
41.913928 1329704139.915447 517 515 622 447 487 326
41.952383 1329704139.923659 513 508 619 435 478 328
41.952383 1329704139.932363 515 506 622 419 471 333
42.003302 1329704139.940460 515 505 625 407 468 339
42.003302 1329704139.948606 517 506 626 405 459 343
42.037040 1329704139.956969 516 507 627 402 450 348
42.037040 1329704139.965233 517 507 628 395 443 353
42.078603 1329704139.973672 519 510 627 390 440 357
42.078603 1329704139.982277 520 512 626 386 433 360
42.111814 1329704139.994646 519 510 625 388 426 360
42.111814 1329704139.998465 518 508 623 393 418 361
42.153604 1329704140.007237 520 509 620 394 409 360
42.153604 1329704140.015240 521 512 618 393 400 361
42.194688 1329704140.023715 522 513 616 393 391 361
42.194688 1329704140.031987 523 510 613 390 384 360
42.236887 1329704140.046150 523 508 610 385 380 359
42.236887 1329704140.048954 523 509 609 385 379 361
42.273250 1329704140.057015 523 509 607 387 377 364
42.273250 1329704140.065103 525 509 605 387 378 366
42.322363 1329704140.073759 526 509 604 383 381 365
42.322363 1329704140.082171 526 508 604 381 385 365
42.353259 1329704140.090248 526 509 604 379 386 364
42.353259 1329704140.099762 527 510 605 380 384 365
42.395863 1329704140.106974 527 511 606 381 383 364
42.395863 1329704140.115609 529 509 606 382 382 364
42.430652 1329704140.123616 531 508 606 382 382 366
42.430652 1329704140.132509 532 507 606 379 380 368
42.485734 1329704140.140033 531 507 607 377 377 369
42.485734 1329704140.152584 531 507 608 377 375 369
42.518427 1329704140.156684 532 508 607 379 373 367
42.518427 1329704140.164953 530 510 606 377 374 367
42.556221 1329704140.173348 529 509 605 376 370 366
42.556221 1329704140.182022 528 506 604 375 368 368
42.601149 1329704140.189993 527 507 602 377 367 369
42.601149 1329704140.198260 526 508 601 377 368 370
42.647738 1329704140.206500 526 508 600 377 370 369
42.647738 1329704140.215100 527 508 599 376 372 369
42.675440 1329704140.223177 525 508 600 374 372 369
42.675440 1329704140.231676 527 508 601 375 376 369
42.712826 1329704140.239824 529 509 602 374 379 370
42.712826 1329704140.248211 529 509 603 374 381 371
42.752377 1329704140.268517 530 508 605 375 381 370
42.752377 1329704140.291650 530 510 606 376 384 372
42.794592 1329704140.303161 531 510 607 375 382 373
42.794592 1329704140.308225 531 508 608 374 380 371
42.836035 1329704140.314674 532 508 609 375 378 371
42.836035 1329704140.322990 532 509 609 376 376 372
42.877497 1329704140.338316 531 510 608 375 376 373
42.877497 1329704140.350351 531 511 608 372 376 371
42.910571 1329704140.356552 532 509 607 373 376 370
42.910571 1329704140.364980 533 507 607 371 380 370
42.952254 1329704140.373495 532 507 605 376 389 370
42.952254 1329704140.381464 536 509 605 383 402 370
42.994021 1329704140.389773 536 510 605 386 416 369
42.994021 1329704140.398167 535 506 604 381 424 369
43.039032 1329704140.406341 533 504 602 370 423 367
43.039032 1329704140.415082 526 503 596 362 415 368
43.089638 1329704140.423055 520 506 587 358 408 368
43.089638 1329704140.431333 519 509 575 354 407 369
43.110612 1329704140.450032 508 510 564 354 414 366
43.110612 1329704140.456797 496 507 554 348 435 362
43.152402 1329704140.465258 483 503 544 342 460 356
43.152402 1329704140.473923 478 505 534 334 480 351
43.193709 1329704140.481817 477 503 530 322 501 348
43.193709 1329704140.490370 470 501 527 307 529 347
43.234028 1329704140.506700 465 501 526 293 550 345
43.234028 1329704140.518268 459 493 528 284 555 347
43.276952 1329704140.527487 463 482 531 272 550 356
43.276952 1329704140.532248 482 484 535 271 542 364
43.320365 1329704140.540235 514 496 545 274 534 373
43.320365 1329704140.548969 598 512 562 286 516 395
43.359733 1329704140.557003 685 538 580 323 480 424
43.359733 1329704140.567697 749 583 607 351 456 439
43.393339 1329704140.573492 831 594 632 368 448 438
43.393339 1329704140.582103 886 604 676 391 456 437
43.434851 1329704140.590474 801 603 703 361 457 383
43.434851 1329704140.598685 705 573 707 310 369 329
43.476594 1329704140.606425 668 550 706 286 222 313
43.476594 1329704140.617392 657 536 695 297 108 333
43.518791 1329704140.623504 678 522 667 314 40 350
43.518791 1329704140.631776 693 516 641 326 6 376
43.551656 1329704140.639793 682 515 626 324 6 383
43.551656 1329704140.648344 657 515 613 309 5 383
43.594583 1329704140.655888 637 521 600 299 6 380
43.594583 1329704140.664435 609 527 584 292 6 377
43.634866 1329704140.672511 585 529 577 293 25 372
43.634866 1329704140.681043 559 536 568 304 60 372
43.677284 1329704140.689013 547 534 556 315 88 374
43.677284 1329704140.697459 522 523 544 320 110 383
43.717693 1329704140.705460 507 528 532 321 125 386
43.717693 1329704140.713902 503 531 520 323 134 386
43.750677 1329704140.721920 499 544 510 330 144 380
43.750677 1329704140.730472 486 551 504 336 165 378
43.792039 1329704140.738220 484 553 495 344 192 373
43.792039 1329704140.747067 477 550 489 351 223 373
43.833495 1329704140.754639 475 552 484 358 248 371
43.833495 1329704140.763632 474 555 484 364 273 367
43.882471 1329704140.771272 469 559 485 370 299 365
43.882471 1329704140.780146 467 561 490 374 331 360
43.916690 1329704140.789637 463 564 496 373 365 358
43.916690 1329704140.796204 466 563 501 375 395 360
43.951162 1329704140.805268 465 563 510 374 421 360
43.951162 1329704140.815943 464 569 525 374 453 359
43.991622 1329704140.821099 463 569 537 378 480 354
43.991622 1329704140.830134 465 568 547 388 495 352
44.037151 1329704140.837791 471 571 560 405 501 350
44.037151 1329704140.846398 471 570 572 435 503 344
44.077605 1329704140.854439 475 560 578 459 497 336
44.077605 1329704140.871956 473 550 583 471 481 329
44.117030 1329704140.880405 476 542 586 473 467 325
44.117030 1329704140.887925 477 535 589 472 459 322
44.151181 1329704140.895782 479 535 593 469 455 322
44.151181 1329704140.904723 473 526 594 455 451 321
44.190530 1329704140.912971 468 514 593 436 447 323
44.190530 1329704140.920751 471 514 591 412 447 326
44.234909 1329704140.931630 472 519 596 399 456 328
44.234909 1329704140.937836 473 523 600 389 468 333
44.275724 1329704140.946253 475 519 602 381 472 340
44.275724 1329704140.954549 475 519 605 381 467 346
44.317432 1329704140.970845 479 527 606 386 461 351
44.317432 1329704140.971894 483 528 607 388 455 354
44.353755 1329704140.984361 486 525 610 389 451 353
44.353755 1329704140.987761 483 525 612 393 450 353
44.392234 1329704140.996008 488 525 612 398 442 353
44.392234 1329704141.004801 489 521 611 397 426 350
44.434476 1329704141.013129 492 518 613 395 415 349
44.434476 1329704141.021355 492 521 614 396 407 349
44.482417 1329704141.036010 495 521 613 395 396 348
44.482417 1329704141.058638 493 516 611 392 384 349
44.517087 1329704141.072866 493 513 610 390 375 349
44.517087 1329704141.081156 491 515 609 387 375 352
44.550625 1329704141.089863 492 515 607 384 374 355
44.550625 1329704141.097424 493 514 605 379 369 358
44.592501 1329704141.106259 491 514 603 376 365 361
44.592501 1329704141.122482 489 515 602 376 367 363
44.633162 1329704141.136635 491 515 600 376 372 364
44.633162 1329704141.140011 491 516 600 375 372 366
44.675395 1329704141.147730 491 517 599 376 373 368
44.675395 1329704141.155841 491 518 601 378 376 367
44.717301 1329704141.164605 492 518 600 378 375 368
44.717301 1329704141.172634 493 518 601 374 378 368
