imu_t vicon_t accel_x accel_y accel_z gyro_x gyro_y gyro_z
0.010357 1329704202.022178 494 519 601 376 378 368
0.958002 1329704202.113557 503 502 605 374 376 371
1.024682 1329704202.130520 503 502 605 374 376 371
1.024682 1329704202.138513 503 503 605 374 376 371
1.024682 1329704202.147911 504 502 605 375 377 371
1.024682 1329704202.155471 504 502 605 375 376 371
1.024682 1329704202.163731 504 502 605 374 376 369
1.024682 1329704202.172125 503 502 605 374 376 369
1.082904 1329704202.180703 503 502 605 374 376 370
1.082904 1329704202.193373 503 502 605 374 376 370
1.082904 1329704202.199226 503 502 605 374 375 370
1.082904 1329704202.205509 503 503 605 374 376 370
1.082904 1329704202.213480 503 502 605 374 376 371
1.082904 1329704202.222232 503 502 605 374 376 370
1.141231 1329704202.234014 503 502 604 375 376 370
1.141231 1329704202.238525 503 502 604 374 376 370
1.141231 1329704202.246964 503 502 605 374 376 371
1.141231 1329704202.255900 504 502 605 375 377 370
1.141231 1329704202.263571 503 502 605 373 376 370
1.141231 1329704202.271995 503 502 604 375 377 369
1.211952 1329704202.280317 504 502 605 374 377 370
1.211952 1329704202.288710 503 502 605 374 376 370
1.211952 1329704202.297444 503 502 605 375 377 370
1.211952 1329704202.305601 504 502 605 374 377 370
1.211952 1329704202.313467 503 502 605 374 377 370
1.211952 1329704202.322295 503 503 605 373 376 370
1.270901 1329704202.341663 504 503 605 374 376 370
1.270901 1329704202.346870 503 502 605 373 376 369
1.270901 1329704202.355190 503 502 605 374 377 370
1.270901 1329704202.363906 503 502 605 375 376 370
1.270901 1329704202.371572 503 503 604 375 376 371
1.270901 1329704202.380441 503 502 604 374 376 370
1.324194 1329704202.389004 503 502 605 374 376 371
1.324194 1329704202.396845 503 502 604 375 375 371
1.324194 1329704202.405195 503 503 605 374 376 369
1.324194 1329704202.413791 504 502 604 374 375 371
1.324194 1329704202.421820 504 503 605 374 376 370
1.324194 1329704202.430103 504 502 605 375 377 370
1.382628 1329704202.438927 503 502 605 375 376 370
1.382628 1329704202.446637 503 502 605 374 375 370
1.382628 1329704202.455323 504 502 605 374 376 370
1.382628 1329704202.463720 503 502 605 375 376 369
1.382628 1329704202.471701 503 502 605 375 376 371
1.382628 1329704202.480181 503 502 604 375 376 371
1.449413 1329704202.488823 503 502 605 375 377 370
1.449413 1329704202.496820 503 502 605 374 377 370
1.449413 1329704202.505464 504 502 605 374 376 370
1.449413 1329704202.513751 503 502 604 374 376 371
1.449413 1329704202.521669 503 502 605 374 376 371
1.449413 1329704202.530110 503 502 604 374 375 370
1.507471 1329704202.550479 504 502 605 374 376 371
1.507471 1329704202.554906 503 502 604 374 376 370
1.507471 1329704202.563597 503 502 605 374 375 371
1.507471 1329704202.571789 503 502 605 374 376 371
1.507471 1329704202.579788 503 502 605 374 376 370
1.507471 1329704202.596755 503 502 605 374 376 370
1.569560 1329704202.605091 503 502 605 374 377 371
1.569560 1329704202.613501 503 502 605 374 376 370
1.569560 1329704202.621917 503 502 605 374 376 370
1.569560 1329704202.630279 503 502 605 375 376 370
1.569560 1329704202.638399 504 502 605 374 376 370
1.569560 1329704202.646445 504 502 605 375 376 371
1.623496 1329704202.655331 504 502 605 373 376 370
1.623496 1329704202.663184 504 502 605 374 376 371
1.623496 1329704202.671617 504 502 605 374 376 371
1.623496 1329704202.679855 503 502 605 374 376 370
1.623496 1329704202.688711 503 502 605 374 376 370
1.623496 1329704202.696637 503 503 605 374 377 370
1.682170 1329704202.705086 503 502 605 374 376 369
1.682170 1329704202.715656 503 502 605 375 376 370
1.682170 1329704202.727593 503 502 605 374 376 371
1.682170 1329704202.730189 504 502 605 374 376 370
1.682170 1329704202.738356 504 502 605 374 376 370
1.682170 1329704202.746407 504 503 605 374 375 370
1.748982 1329704202.761589 504 502 605 374 375 369
1.748982 1329704202.764135 503 502 605 374 375 371
1.748982 1329704202.771741 504 502 605 373 376 371
1.748982 1329704202.780086 503 502 605 374 376 370
1.748982 1329704202.788406 503 502 605 374 376 370
1.748982 1329704202.796465 503 502 605 374 376 370
1.808670 1329704202.805094 503 503 604 374 376 371
1.808670 1329704202.813637 503 503 605 373 377 370
1.808670 1329704202.821683 503 502 605 374 376 370
1.808670 1329704202.829966 503 503 605 374 376 371
1.808670 1329704202.838471 503 502 605 373 376 371
1.808670 1329704202.846488 504 502 605 374 377 370
1.873494 1329704202.855063 503 502 604 374 377 370
1.873494 1329704202.863310 504 502 605 374 377 371
1.873494 1329704202.871822 503 503 605 374 376 370
1.873494 1329704202.879867 503 502 605 375 376 371
1.873494 1329704202.888035 503 503 605 374 377 370
1.873494 1329704202.896502 503 502 604 375 376 371
1.923814 1329704202.905540 503 502 605 374 376 371
1.923814 1329704202.913016 503 502 605 374 376 370
1.923814 1329704202.921658 503 503 605 374 376 370
1.923814 1329704202.929707 503 502 605 374 376 370
1.923814 1329704202.937730 503 502 604 374 376 370
1.923814 1329704202.946448 503 502 605 373 377 370
1.973058 1329704202.954933 504 502 604 375 377 371
1.973058 1329704202.962915 504 503 605 374 376 370
1.973058 1329704202.971767 504 502 605 375 376 371
1.973058 1329704202.979708 504 502 605 374 376 370
2.006880 1329704202.987971 503 502 605 375 376 371
2.006880 1329704202.996307 504 502 605 375 376 370
2.031923 1329704203.004863 503 502 605 376 376 370
2.065269 1329704203.012639 504 502 605 374 376 370
2.065269 1329704203.021710 503 503 605 374 376 370
2.101324 1329704203.029818 503 502 605 374 375 370
2.123914 1329704203.037850 503 502 605 375 376 371
2.123914 1329704203.046351 503 502 605 374 377 370
2.156318 1329704203.055056 505 503 601 373 377 369
2.181285 1329704203.063040 504 502 604 374 376 371
2.181285 1329704203.071531 504 502 603 375 376 370
2.214896 1329704203.079858 503 503 604 374 375 371
2.251179 1329704203.088150 504 502 602 374 376 370
2.251179 1329704203.106302 503 502 604 373 375 370
2.273424 1329704203.113169 503 502 604 375 376 370
2.306379 1329704203.121497 503 503 605 374 376 371
2.306379 1329704203.129877 504 502 604 375 376 370
2.331140 1329704203.137802 503 502 605 373 376 370
2.364341 1329704203.146551 503 502 605 374 376 370
2.364341 1329704203.156179 503 503 605 374 376 370
2.398356 1329704203.163210 504 502 604 374 376 370
2.422651 1329704203.171248 503 502 605 375 376 370
2.422651 1329704203.179761 502 502 604 375 376 370
2.451019 1329704203.188065 502 502 605 374 376 371
2.481022 1329704203.196422 503 502 606 375 377 371
2.481022 1329704203.204417 505 502 606 374 376 370
2.514403 1329704203.212981 505 503 605 374 376 370
2.546962 1329704203.221362 503 503 605 374 376 369
2.546962 1329704203.235791 500 502 604 374 375 370
2.571995 1329704203.238172 500 502 604 374 376 371
2.604988 1329704203.246452 504 502 605 374 377 371
2.604988 1329704203.257906 506 503 605 374 376 370
2.638671 1329704203.262958 506 502 605 374 375 370
2.663613 1329704203.271196 502 502 604 373 375 370
2.663613 1329704203.279690 501 503 604 374 376 369
2.696975 1329704203.287963 502 503 604 374 376 370
2.721992 1329704203.296143 504 502 605 374 377 370
2.721992 1329704203.317082 505 502 606 375 376 370
2.758679 1329704203.331240 504 503 606 375 376 370
2.780265 1329704203.338116 504 503 605 374 376 370
2.780265 1329704203.346186 503 502 605 374 375 370
2.812642 1329704203.354753 502 503 604 374 376 370
2.846731 1329704203.362846 503 503 604 374 377 370
2.846731 1329704203.376108 504 502 605 374 376 370
2.880907 1329704203.379530 505 502 604 374 376 370
2.904863 1329704203.387939 504 503 606 374 377 371
2.904863 1329704203.396066 504 503 604 374 375 370
2.936912 1329704203.404701 502 503 605 374 376 370
2.963290 1329704203.412836 501 501 604 374 375 370
2.963290 1329704203.420904 502 503 605 374 377 370
2.998779 1329704203.429380 505 502 605 374 377 370
3.038164 1329704203.438187 506 503 605 374 376 370
3.038164 1329704203.445968 503 502 605 374 376 370
3.079654 1329704203.454642 502 503 605 375 376 371
3.117641 1329704203.462771 505 502 604 374 376 371
3.164132 1329704203.475570 502 502 606 374 374 371
3.196613 1329704203.480814 503 502 605 374 376 371
3.221529 1329704203.487884 503 502 606 374 376 371
3.254672 1329704203.496159 504 502 604 374 375 370
3.296153 1329704203.504608 502 503 605 374 376 371
3.296153 1329704203.512774 503 503 604 374 377 370
3.338133 1329704203.525594 503 503 606 375 377 370
3.338133 1329704203.528989 503 502 604 374 382 370
3.379800 1329704203.538203 506 502 606 374 387 370
3.379800 1329704203.545961 505 504 604 375 391 370
3.406066 1329704203.554646 502 502 605 375 388 370
3.437996 1329704203.562814 504 502 604 376 393 370
3.479591 1329704203.570743 505 504 611 378 412 370
3.479591 1329704203.579241 508 500 611 376 421 371
3.512618 1329704203.587943 512 504 606 379 444 374
3.512618 1329704203.595938 513 501 607 380 446 381
3.554632 1329704203.604464 522 518 610 383 444 388
3.554632 1329704203.612733 536 530 631 380 439 384
3.598134 1329704203.625254 537 523 643 378 418 376
3.598134 1329704203.628792 531 522 650 380 399 373
3.637893 1329704203.637972 530 521 650 386 386 367
3.637893 1329704203.645882 532 523 649 393 376 365
3.679322 1329704203.654493 532 521 642 395 365 365
3.679322 1329704203.662605 531 518 633 389 354 364
3.723420 1329704203.674843 529 518 626 385 348 362
3.723420 1329704203.680454 530 521 620 385 344 362
3.754075 1329704203.687887 530 517 616 380 338 361
3.754075 1329704203.696026 524 514 611 373 340 364
3.791871 1329704203.704462 520 513 606 367 346 365
3.791871 1329704203.712383 522 511 602 363 358 367
3.848720 1329704203.720624 521 509 599 361 364 369
3.848720 1329704203.728753 524 506 600 354 372 371
3.871374 1329704203.738027 519 503 602 348 381 370
3.871374 1329704203.745712 518 501 601 345 393 368
3.912930 1329704203.754220 517 505 602 347 401 366
3.912930 1329704203.762599 516 501 601 345 404 358
3.954434 1329704203.770720 517 503 599 354 404 350
3.954434 1329704203.778800 523 504 595 364 403 345
3.996457 1329704203.787445 516 501 596 368 399 347
3.996457 1329704203.795975 509 496 595 367 384 343
4.037965 1329704203.804192 513 493 595 364 365 339
4.037965 1329704203.812378 514 499 594 364 354 340
4.071477 1329704203.820573 513 499 594 367 350 343
4.071477 1329704203.828771 516 503 592 368 352 344
4.112848 1329704203.837710 511 499 586 367 357 342
4.112848 1329704203.845849 505 499 586 371 362 337
4.160943 1329704203.854232 506 500 588 378 370 336
4.160943 1329704203.864515 509 497 590 378 381 340
4.196261 1329704203.870571 506 498 588 374 388 341
4.196261 1329704203.878619 509 498 590 373 390 340
4.237632 1329704203.887454 509 500 590 385 393 345
4.237632 1329704203.895731 513 502 592 397 393 349
4.272810 1329704203.903940 515 501 596 399 392 353
4.272810 1329704203.913886 511 502 597 395 385 356
4.312642 1329704203.920602 513 502 599 391 379 358
4.312642 1329704203.928969 513 501 600 388 380 359
4.354736 1329704203.937158 512 500 602 384 382 358
4.354736 1329704203.945452 514 500 601 381 383 359
4.396352 1329704203.953841 516 498 602 381 382 361
4.396352 1329704203.964154 518 495 603 383 385 366
4.437683 1329704203.978655 514 495 606 386 392 365
4.437683 1329704203.990708 516 495 605 386 393 365
4.471933 1329704203.996506 519 493 605 386 388 365
4.471933 1329704204.008584 517 491 606 387 379 366
4.512834 1329704204.011956 517 490 608 392 372 364
4.512834 1329704204.020477 515 491 608 393 365 364
4.554520 1329704204.029016 516 490 607 390 362 364
4.554520 1329704204.037065 514 489 605 386 361 363
4.596169 1329704204.045517 512 490 604 385 364 363
4.596169 1329704204.053705 512 489 602 384 367 363
4.637705 1329704204.062185 512 489 602 384 371 363
4.637705 1329704204.070445 512 491 603 383 376 363
4.679579 1329704204.078348 513 492 602 379 382 362
4.713068 1329704204.093547 514 490 601 375 374 361
4.754368 1329704204.095874 513 492 603 371 361 363
4.796060 1329704204.103526 512 492 605 370 362 362
4.837733 1329704204.112172 512 493 604 365 365 362
4.879122 1329704204.120703 513 495 605 373 372 363
4.912979 1329704204.128626 512 493 602 379 373 363
4.954104 1329704204.137111 511 495 604 380 375 362
4.995939 1329704204.145089 513 496 605 371 373 357
5.037655 1329704204.153385 512 498 608 366 371 358
5.080840 1329704204.162125 514 500 609 366 378 366
5.103931 1329704204.170462 516 498 615 374 388 370
5.133586 1329704204.178554 519 497 615 376 391 370
5.179406 1329704204.187064 515 499 615 371 396 370
5.179406 1329704204.206557 519 498 613 361 395 365
5.212633 1329704204.211537 517 495 608 354 392 361
5.212633 1329704204.220390 515 498 601 347 390 362
5.254032 1329704204.229091 514 502 592 339 395 362
5.254032 1329704204.236716 515 499 584 338 406 359
5.292207 1329704204.251733 510 503 573 337 417 361
5.292207 1329704204.254103 507 501 564 337 429 362
5.337348 1329704204.261617 504 501 555 338 446 364
5.337348 1329704204.270159 506 503 547 341 461 361
5.378887 1329704204.278807 503 502 543 342 480 363
5.378887 1329704204.286547 505 497 539 339 503 362
5.412237 1329704204.295257 503 498 537 335 521 361
5.412237 1329704204.303859 496 500 535 335 531 364
5.453673 1329704204.311624 495 503 534 335 537 367
5.453673 1329704204.320168 488 492 534 334 542 374
5.494850 1329704204.328760 482 486 538 341 539 385
5.494850 1329704204.338938 481 490 543 355 528 399
5.536838 1329704204.345125 502 491 548 374 510 416
5.536838 1329704204.356015 542 504 556 397 496 432
5.578258 1329704204.361445 604 538 577 409 502 431
5.578258 1329704204.369961 666 543 605 409 529 401
5.611535 1329704204.378721 708 536 626 404 540 378
5.611535 1329704204.386456 731 540 647 399 539 362
5.656097 1329704204.395119 744 533 665 403 531 340
5.656097 1329704204.403249 732 521 667 421 503 339
5.693943 1329704204.411556 701 525 662 433 450 353
5.693943 1329704204.419821 663 526 648 434 388 365
5.736157 1329704204.428277 632 518 630 415 326 365
5.736157 1329704204.436416 608 506 613 397 271 367
5.777758 1329704204.444890 607 499 600 392 237 370
5.777758 1329704204.452753 605 499 591 403 220 377
5.819205 1329704204.461397 594 508 587 420 228 380
5.819205 1329704204.469533 587 513 583 430 248 384
5.852835 1329704204.477980 579 512 586 438 275 380
5.852835 1329704204.486165 580 508 593 456 298 378
5.895299 1329704204.494848 584 512 601 484 317 377
5.895299 1329704204.503605 584 509 614 508 331 378
5.955441 1329704204.511164 591 504 625 526 326 385
5.955441 1329704204.519473 596 499 635 537 304 387
5.972305 1329704204.527915 601 492 640 547 272 386
5.972305 1329704204.536200 602 485 640 553 240 386
6.011651 1329704204.544500 603 482 639 556 212 386
6.011651 1329704204.556242 602 481 635 553 191 387
6.053173 1329704204.561063 605 477 629 550 177 389
6.053173 1329704204.569211 596 465 621 547 173 391
6.100119 1329704204.577543 591 464 615 544 165 395
6.100119 1329704204.586030 586 464 606 544 144 402
6.136741 1329704204.594157 573 465 592 543 116 412
6.136741 1329704204.602021 558 460 577 522 89 416
6.190092 1329704204.610979 550 455 555 488 74 416
6.190092 1329704204.619627 532 449 524 446 60 417
6.211747 1329704204.627204 515 448 504 423 55 417
6.211747 1329704204.635478 490 456 497 425 90 413
6.250900 1329704204.644088 479 454 476 427 155 403
6.250900 1329704204.652044 479 444 463 413 221 403
6.295273 1329704204.660504 470 444 464 404 286 406
6.295273 1329704204.668909 467 445 470 392 342 404
6.336549 1329704204.677282 470 443 479 377 382 398
6.336549 1329704204.685521 469 442 492 360 412 392
6.378178 1329704204.694103 472 444 503 343 430 382
6.378178 1329704204.701966 474 450 515 333 435 376
6.411210 1329704204.710271 475 454 523 321 430 369
6.411210 1329704204.718657 477 449 531 309 425 363
6.453127 1329704204.727269 480 446 536 297 420 356
6.453127 1329704204.735365 479 446 540 292 418 353
6.494666 1329704204.743908 479 444 543 289 421 353
6.494666 1329704204.751839 479 439 546 282 431 355
6.536364 1329704204.760779 479 432 554 266 455 355
6.536364 1329704204.768820 485 430 563 250 482 354
6.577971 1329704204.777273 494 438 568 244 492 357
6.577971 1329704204.785699 494 443 571 240 495 366
6.611569 1329704204.794022 498 449 579 229 497 371
6.611569 1329704204.802186 497 455 595 220 509 373
6.653156 1329704204.810703 501 462 602 221 507 378
6.653156 1329704204.818525 509 470 605 226 491 381
6.694738 1329704204.827240 514 469 612 237 473 388
6.694738 1329704204.835347 513 474 620 252 465 392
6.736369 1329704204.848481 510 482 623 262 463 391
6.736369 1329704204.851879 516 486 621 268 450 391
6.778065 1329704204.863908 520 489 621 274 432 396
6.778065 1329704204.868822 519 491 624 286 419 402
6.811400 1329704204.877117 515 495 623 297 413 403
6.811400 1329704204.885466 520 498 621 306 405 406
6.852746 1329704204.893932 519 501 620 317 396 408
6.852746 1329704204.902057 512 503 618 328 392 409
6.894716 1329704204.917889 512 505 614 337 386 409
6.894716 1329704204.928257 512 508 612 343 386 408
6.936402 1329704204.935467 509 507 613 346 386 405
6.936402 1329704204.943674 506 508 614 350 386 398
6.977461 1329704204.951995 509 507 612 356 383 394
6.977461 1329704204.960070 509 508 611 360 384 393
7.014296 1329704204.968827 507 511 611 365 384 392
7.014296 1329704204.986152 506 510 611 368 386 388
7.057866 1329704204.993724 508 508 609 374 388 384
7.057866 1329704205.002470 509 506 607 381 388 384
7.096938 1329704205.010138 510 505 607 382 390 381
7.096938 1329704205.018390 510 504 609 381 393 378
7.144421 1329704205.026961 512 504 609 380 391 374
7.144421 1329704205.042077 513 503 608 379 385 374
7.177663 1329704205.053365 513 502 607 378 382 373
7.177663 1329704205.060427 514 502 609 376 384 373
7.219668 1329704205.068481 516 503 609 375 386 370
7.219668 1329704205.080180 517 502 609 376 386 371
7.252572 1329704205.086516 518 503 608 378 385 370
7.252572 1329704205.093486 518 502 608 379 385 369
7.294303 1329704205.104020 520 503 608 380 382 367
7.294303 1329704205.123905 521 502 607 378 379 365
7.335733 1329704205.126667 521 500 606 376 376 363
7.335733 1329704205.135372 521 498 606 374 376 362
7.380660 1329704205.143446 521 499 606 374 377 363
7.380660 1329704205.151688 520 500 606 377 379 365
7.419043 1329704205.160193 521 499 605 377 379 366
7.419043 1329704205.168299 521 498 605 377 381 367
7.462383 1329704205.176818 521 497 606 376 383 367
7.462383 1329704205.184919 523 497 607 372 385 368
7.494317 1329704205.193409 523 497 607 371 387 367
7.494317 1329704205.201928 524 499 607 370 388 367
7.545619 1329704205.209915 526 497 609 370 392 368
7.545619 1329704205.222869 529 494 608 371 396 369
7.577242 1329704205.226619 533 492 608 370 406 371
7.577242 1329704205.234885 534 497 607 370 419 373
7.619146 1329704205.243498 533 503 606 367 427 370
7.619146 1329704205.251504 530 502 601 361 431 367
7.652423 1329704205.269356 528 498 596 355 433 368
7.652423 1329704205.276686 522 500 588 350 433 368
7.693977 1329704205.285070 518 501 581 344 437 367
7.693977 1329704205.292924 510 498 571 339 445 364
7.735253 1329704205.301839 502 499 564 334 453 359
7.735253 1329704205.309965 491 499 557 330 464 353
7.777423 1329704205.318254 483 497 550 326 475 348
7.777423 1329704205.326792 483 495 543 325 484 350
7.818189 1329704205.334847 480 496 539 329 491 353
7.818189 1329704205.343058 473 495 537 333 497 360
7.851942 1329704205.351580 481 491 535 344 496 369
7.851942 1329704205.359894 495 491 538 365 492 378
7.892865 1329704205.379242 525 500 542 388 490 393
7.892865 1329704205.392331 561 532 551 408 492 406
7.935245 1329704205.394065 598 550 568 425 495 384
7.935245 1329704205.401367 623 509 587 429 507 351
7.976214 1329704205.410092 657 499 596 404 503 372
7.976214 1329704205.417713 690 537 615 406 491 397
8.026236 1329704205.426499 705 541 630 442 488 395
8.026236 1329704205.434904 705 533 639 460 495 395
8.064530 1329704205.443327 694 522 647 459 495 390
8.064530 1329704205.451245 677 499 644 461 467 383
8.096526 1329704205.459892 658 490 639 456 421 377
8.096526 1329704205.467849 642 496 637 446 375 380
8.134525 1329704205.476448 628 505 636 433 332 379
8.134525 1329704205.484858 629 507 631 423 291 378
8.180698 1329704205.495193 630 505 629 421 258 380
8.180698 1329704205.501344 626 503 628 424 237 381
8.217546 1329704205.511293 623 505 629 433 224 377
8.217546 1329704205.517827 623 503 632 445 215 374
8.250841 1329704205.527087 628 498 633 473 197 380
8.250841 1329704205.534765 633 489 636 518 172 395
8.293196 1329704205.543260 634 494 636 577 151 417
8.293196 1329704205.551233 626 504 630 629 130 427
8.333980 1329704205.559488 615 500 617 643 108 426
8.333980 1329704205.567755 602 492 600 625 82 421
8.376371 1329704205.576240 586 495 577 601 52 418
8.376371 1329704205.584854 565 489 556 569 43 415
8.417861 1329704205.593063 553 468 530 532 59 414
8.417861 1329704205.601175 541 458 517 506 88 417
8.454530 1329704205.609723 520 464 504 515 112 415
8.454530 1329704205.617854 504 461 484 524 127 412
8.492987 1329704205.626400 487 449 469 506 154 408
8.492987 1329704205.634623 477 447 460 477 194 400
8.534394 1329704205.643232 469 447 457 443 243 394
8.534394 1329704205.651547 464 441 457 412 294 389
8.576543 1329704205.659767 467 439 462 380 347 388
8.576543 1329704205.668123 470 436 474 343 395 388
8.622024 1329704205.676174 474 439 489 319 430 382
8.622024 1329704205.684877 476 442 504 301 450 371
8.650969 1329704205.703405 478 441 518 284 460 358
8.650969 1329704205.709876 482 443 529 271 464 343
8.692877 1329704205.718085 483 442 536 264 462 336
8.692877 1329704205.726309 483 439 542 259 460 336
8.742930 1329704205.734796 491 434 546 250 457 338
8.742930 1329704205.743185 497 425 553 218 462 344
8.776597 1329704205.760033 501 423 556 192 466 353
8.776597 1329704205.771621 498 429 560 185 465 365
8.817484 1329704205.776184 494 438 568 182 464 377
8.817484 1329704205.784514 500 441 580 165 481 383
8.853625 1329704205.793136 510 446 583 161 483 395
8.853625 1329704205.801400 515 463 586 166 474 411
8.893338 1329704205.809403 514 479 592 170 462 420
8.893338 1329704205.828645 514 487 602 169 467 422
8.935910 1329704205.834468 516 488 613 175 481 416
8.935910 1329704205.843054 527 498 615 204 474 418
8.976009 1329704205.851144 532 516 617 240 451 422
8.976009 1329704205.859345 530 525 624 278 437 419
9.017692 1329704205.867522 528 524 628 313 438 414
9.017692 1329704205.885546 533 521 630 341 438 408
9.059102 1329704205.897070 536 526 631 359 427 406
9.059102 1329704205.902178 533 533 630 368 413 402
9.092058 1329704205.913439 533 529 629 375 403 394
9.092058 1329704205.917871 530 524 628 381 401 389
9.133743 1329704205.926220 529 519 627 384 396 384
9.133743 1329704205.934647 530 515 624 388 389 382
9.185545 1329704205.953950 528 510 621 392 382 380
9.185545 1329704205.959637 526 506 617 392 380 381
9.218162 1329704205.968134 527 504 612 394 377 381
9.218162 1329704205.976601 528 502 610 391 377 384
9.260509 1329704205.984293 527 499 608 385 379 386
9.260509 1329704205.992955 525 497 608 380 380 385
9.292020 1329704206.002582 527 500 607 376 378 384
9.292020 1329704206.009551 530 501 605 372 376 378
9.333817 1329704206.018180 529 500 604 369 375 376
9.333817 1329704206.026576 530 498 604 369 377 374
9.374937 1329704206.034468 528 500 603 370 380 374
9.374937 1329704206.043078 529 501 604 373 382 372
9.417060 1329704206.051444 529 500 603 378 385 372
9.417060 1329704206.059645 530 501 601 382 386 372
9.458419 1329704206.068198 531 501 602 378 389 373
9.458419 1329704206.076800 530 498 602 372 395 374
9.500810 1329704206.084556 530 500 602 368 396 374
9.500810 1329704206.093189 531 501 602 367 395 375
9.533810 1329704206.101631 530 501 604 363 396 375
9.533810 1329704206.113674 531 500 605 360 394 377
9.574922 1329704206.121138 532 499 606 360 394 379
9.574922 1329704206.126648 528 499 606 365 395 381
9.616784 1329704206.134738 526 502 606 370 396 385
9.616784 1329704206.143229 529 503 606 370 393 387
9.654312 1329704206.151624 532 503 607 367 388 390
9.654312 1329704206.168205 531 504 607 367 384 390
9.691742 1329704206.170729 532 507 607 368 383 390
9.691742 1329704206.176706 533 506 606 369 382 387
9.733014 1329704206.184585 535 506 607 373 382 385
9.733014 1329704206.193214 535 505 606 374 382 383
9.774909 1329704206.201881 537 504 606 378 383 383
9.774909 1329704206.214561 539 504 608 378 388 382
9.823422 1329704206.218120 538 505 608 378 394 385
9.823422 1329704206.226913 539 502 609 375 395 385
9.857685 1329704206.234610 539 500 607 373 396 388
9.857685 1329704206.243095 540 500 606 371 393 390
9.899021 1329704206.251499 540 501 606 367 390 389
9.899021 1329704206.266155 540 500 605 362 386 388
9.932997 1329704206.279991 539 498 603 359 382 388
9.932997 1329704206.284975 539 495 603 358 379 390
9.976819 1329704206.293042 537 496 602 359 382 392
9.976819 1329704206.301459 538 498 600 360 387 391
10.015538 1329704206.309862 539 496 601 358 395 390
10.015538 1329704206.317810 542 493 603 358 401 389
10.057443 1329704206.327069 547 493 606 361 404 391
10.057443 1329704206.335031 551 494 608 367 409 391
10.092632 1329704206.342920 555 497 610 368 417 392
10.092632 1329704206.351539 554 498 610 361 422 391
10.131873 1329704206.359843 555 498 608 352 419 391
10.131873 1329704206.367955 555 498 605 346 414 391
10.174395 1329704206.378027 551 500 600 341 411 391
10.174395 1329704206.385035 548 503 592 335 410 389
10.219359 1329704206.393073 543 504 584 333 412 385
10.219359 1329704206.401540 538 505 576 330 414 379
10.257010 1329704206.410098 528 503 569 330 417 372
10.257010 1329704206.417910 518 501 563 332 422 371
10.298764 1329704206.426749 510 499 559 337 429 368
10.298764 1329704206.435201 503 495 554 340 439 368
10.332019 1329704206.443135 492 492 549 342 449 372
10.332019 1329704206.451550 484 487 547 342 455 378
10.373985 1329704206.460008 479 484 544 346 455 387
10.373985 1329704206.467985 477 489 540 355 451 396
10.415143 1329704206.476840 485 498 539 366 446 399
10.415143 1329704206.484895 522 501 540 380 445 400
10.456920 1329704206.493202 578 512 549 392 464 399
10.456920 1329704206.501609 624 533 570 388 500 388
10.498316 1329704206.509954 649 532 589 389 528 375
10.498316 1329704206.518114 682 511 595 403 510 376
10.532008 1329704206.528969 702 506 603 438 485 393
10.532008 1329704206.535071 706 533 613 458 479 402
10.572783 1329704206.542900 701 523 616 451 479 393
10.572783 1329704206.551484 672 513 612 420 463 390
10.618676 1329704206.559675 652 506 610 391 432 383
10.618676 1329704206.568112 621 502 603 373 389 378
10.663158 1329704206.577012 605 499 594 362 349 382
10.663158 1329704206.584854 597 498 585 353 318 384
10.697622 1329704206.592852 598 499 579 352 301 387
10.697622 1329704206.601493 596 500 577 359 303 389
10.731245 1329704206.609595 596 499 579 370 320 390
10.731245 1329704206.618013 597 502 582 381 341 388
10.776111 1329704206.626196 599 506 587 392 358 384
10.776111 1329704206.634714 604 506 600 411 371 379
10.815430 1329704206.642864 615 503 616 433 375 379
10.815430 1329704206.651126 620 503 632 458 361 383
10.856377 1329704206.659784 622 504 643 482 318 384
10.856377 1329704206.668155 620 498 649 495 260 390
10.898655 1329704206.678606 629 493 654 503 201 398
10.898655 1329704206.684612 633 499 650 519 146 406
10.931779 1329704206.692728 637 504 641 547 98 415
10.931779 1329704206.701341 629 505 633 576 67 420
10.973030 1329704206.709818 628 499 619 589 49 424
10.973030 1329704206.718015 618 497 610 593 46 420
11.018861 1329704206.726741 600 495 603 586 50 415
11.018861 1329704206.734985 592 486 589 579 51 414
11.056476 1329704206.742977 581 475 577 566 52 414
11.056476 1329704206.751358 560 471 562 553 51 418
11.104011 1329704206.759694 542 470 541 533 43 422
11.104011 1329704206.768037 524 456 525 489 34 425
11.142111 1329704206.776415 521 441 514 434 43 418
11.142111 1329704206.784827 511 453 494 427 55 415
11.173340 1329704206.792982 490 460 474 419 82 420
11.173340 1329704206.801317 478 456 459 411 129 415
11.216133 1329704206.809584 473 452 447 399 194 410
11.216133 1329704206.818325 469 449 440 391 262 403
11.260543 1329704206.829237 464 450 442 384 325 396
11.260543 1329704206.834621 459 448 451 373 383 390
11.298790 1329704206.842829 458 448 466 360 430 379
11.298790 1329704206.851295 459 449 480 348 462 368
11.331852 1329704206.859503 459 449 493 333 475 359
11.331852 1329704206.868182 458 447 508 312 483 349
11.373342 1329704206.879961 462 443 519 291 485 341
11.373342 1329704206.884685 469 438 527 280 480 334
11.415514 1329704206.892964 471 434 534 271 482 332
11.415514 1329704206.901342 470 431 540 256 494 333
11.456361 1329704206.909500 474 433 548 245 510 335
11.456361 1329704206.918079 474 430 556 227 535 336
11.498710 1329704206.926290 486 437 562 213 548 338
11.498710 1329704206.934520 492 445 569 202 553 345
11.531869 1329704206.942959 497 450 579 187 551 351
11.531869 1329704206.951315 504 452 587 173 545 358
11.585614 1329704206.959607 510 458 596 162 541 368
11.585614 1329704206.968069 515 469 602 169 532 377
11.615080 1329704206.976565 519 479 607 187 516 384
11.615080 1329704206.984408 523 483 614 199 504 391
11.656318 1329704206.992803 522 483 616 204 497 395
11.656318 1329704207.001208 534 489 615 221 478 398
11.698751 1329704207.009564 534 496 619 242 462 402
11.698751 1329704207.018252 534 501 620 262 450 405
11.732033 1329704207.026588 532 507 621 277 444 408
11.732033 1329704207.034655 532 510 621 295 434 406
11.772830 1329704207.042862 539 520 620 320 428 403
11.772830 1329704207.051415 530 520 616 339 423 400
11.814609 1329704207.059358 532 518 614 350 421 399
11.814609 1329704207.079407 534 515 613 355 416 396
11.851132 1329704207.084625 534 515 610 362 415 397
11.851132 1329704207.092803 534 517 607 371 417 398
11.900675 1329704207.101169 534 517 607 375 424 398
11.900675 1329704207.109393 536 517 608 378 427 398
11.938502 1329704207.117854 539 514 612 378 426 396
11.938502 1329704207.126351 541 512 615 377 424 394
11.985024 1329704207.134620 545 511 617 377 419 392
11.985024 1329704207.142884 547 514 617 380 414 389
12.013828 1329704207.151057 547 513 617 383 410 385
12.013828 1329704207.159409 548 509 618 386 408 382
12.055319 1329704207.167736 552 509 619 386 404 379
12.055319 1329704207.176290 551 508 619 385 399 377
12.096664 1329704207.186015 551 507 616 383 391 375
12.096664 1329704207.192706 550 506 613 379 385 372
12.138805 1329704207.200989 548 503 612 375 378 372
12.138805 1329704207.209265 549 504 608 373 369 371
12.172008 1329704207.217765 546 504 605 375 364 373
12.172008 1329704207.226039 546 504 602 376 361 371
12.213548 1329704207.238822 545 503 599 377 361 373
12.213548 1329704207.242721 543 502 598 375 362 371
12.255023 1329704207.251009 543 502 597 375 366 372
12.255023 1329704207.259197 543 502 596 375 368 371
12.296596 1329704207.267801 543 501 597 377 374 371
12.296596 1329704207.276038 544 500 597 378 377 371
12.338744 1329704207.284578 545 502 597 380 376 371
12.338744 1329704207.292502 547 502 599 382 377 371
12.372146 1329704207.300836 546 500 599 382 379 370
12.372146 1329704207.309076 546 500 601 380 379 370
12.413197 1329704207.317867 547 500 601 377 377 369
12.413197 1329704207.326092 548 500 602 378 374 369
12.455084 1329704207.334436 548 500 602 378 373 369
12.455084 1329704207.343360 548 499 602 376 371 370
12.496694 1329704207.351040 547 499 603 374 370 369
12.496694 1329704207.359288 547 500 603 373 369 370
12.540231 1329704207.367792 547 501 602 373 369 370
12.540231 1329704207.375828 547 500 602 373 370 369
12.571321 1329704207.384169 547 501 602 373 370 371
12.571321 1329704207.397169 547 502 602 372 370 370
12.613261 1329704207.401184 548 502 603 372 373 369
12.613261 1329704207.409287 549 500 604 370 377 370
12.654711 1329704207.417633 551 501 607 373 379 370
12.654711 1329704207.425964 553 504 610 377 377 368
12.696519 1329704207.434167 554 503 612 378 376 366
12.696519 1329704207.442648 554 500 613 378 379 364
12.738415 1329704207.450958 557 502 614 378 382 364
12.738415 1329704207.459357 563 504 616 376 385 361
12.771434 1329704207.467343 561 500 615 370 391 358
12.771434 1329704207.475752 561 498 612 365 399 358
12.813239 1329704207.484130 555 499 608 357 409 359
12.813239 1329704207.492507 552 502 599 351 419 360
12.854603 1329704207.512546 543 506 589 344 428 359
12.854603 1329704207.517447 534 501 576 344 436 361
12.896443 1329704207.525640 523 504 565 348 433 364
12.896443 1329704207.533816 518 502 558 353 425 364
12.947285 1329704207.542030 507 499 551 356 426 364
12.947285 1329704207.552780 495 494 544 356 432 364
12.979454 1329704207.558906 486 493 539 359 440 364
12.979454 1329704207.566926 475 489 536 363 448 363
13.021932 1329704207.575119 473 484 533 365 455 368
13.021932 1329704207.583450 483 485 532 369 462 377
13.056662 1329704207.591665 491 494 531 376 468 387
13.056662 1329704207.600087 512 505 538 387 477 393
13.097095 1329704207.608802 544 515 546 405 489 391
13.097095 1329704207.616993 583 514 557 406 502 392
13.131268 1329704207.624961 623 520 574 386 515 396
13.131268 1329704207.634415 655 511 589 378 517 384
13.174972 1329704207.641964 686 508 598 375 507 368
13.174972 1329704207.649856 699 519 612 353 502 372
13.212513 1329704207.658754 708 530 621 338 504 366
13.212513 1329704207.666989 707 520 624 345 495 356
13.253963 1329704207.675014 682 506 622 361 475 351
13.253963 1329704207.683523 655 499 619 374 443 358
13.297422 1329704207.691539 636 503 616 383 392 372
13.297422 1329704207.699571 631 512 617 398 332 391
13.336127 1329704207.708576 625 511 618 419 282 402
13.336127 1329704207.716707 628 507 620 441 251 417
13.371556 1329704207.724607 629 508 621 465 222 425
13.371556 1329704207.733316 621 502 621 480 201 424
13.412498 1329704207.741378 619 497 626 486 196 414
13.412498 1329704207.749355 622 499 631 485 208 404
13.454613 1329704207.761323 626 502 635 489 220 394
13.454613 1329704207.766365 630 496 640 496 222 388
13.496406 1329704207.774435 633 493 643 511 204 395
13.496406 1329704207.783219 631 495 650 527 172 404
13.538012 1329704207.791045 631 491 647 547 126 416
13.538012 1329704207.799219 627 491 640 570 71 431
13.571050 1329704207.809737 617 506 623 596 21 439
13.571050 1329704207.816638 613 522 591 611 6 438
13.612353 1329704207.824582 599 523 561 615 6 432
13.612353 1329704207.833260 576 516 539 616 5 432
13.660105 1329704207.841392 554 492 513 607 6 429
13.660105 1329704207.849540 538 475 483 590 15 425
13.696144 1329704207.858102 519 473 458 568 58 423
13.696144 1329704207.866817 490 473 443 545 124 414
13.737760 1329704207.874662 474 464 432 526 203 401
13.737760 1329704207.883042 470 455 424 488 276 394
13.772508 1329704207.891355 460 451 431 442 340 393
13.772508 1329704207.899824 458 444 442 397 393 388
13.821506 1329704207.907960 463 442 455 353 428 380
13.821506 1329704207.916529 465 442 470 313 449 374
13.854258 1329704207.924463 465 438 485 275 464 365
13.854258 1329704207.932912 470 436 496 240 474 356
13.895815 1329704207.941617 474 438 508 212 483 351
13.895815 1329704207.949746 475 436 522 194 496 347
13.937529 1329704207.958103 480 434 533 182 514 345
13.937529 1329704207.967074 486 438 548 169 531 341
13.971729 1329704207.975158 492 448 560 162 539 340
13.971729 1329704207.983556 494 454 568 162 532 344
14.012535 1329704207.991862 500 463 577 161 519 348
14.012535 1329704208.000562 503 455 589 148 514 342
14.053846 1329704208.008687 511 459 598 138 513 347
14.053846 1329704208.022289 514 469 608 143 509 361
14.091695 1329704208.036598 519 479 611 159 495 367
14.091695 1329704208.060688 522 482 614 176 480 371
14.138639 1329704208.074542 527 486 617 189 468 380
14.138639 1329704208.077581 527 491 621 210 455 388
14.180197 1329704208.083884 528 500 622 246 438 395
14.180197 1329704208.091946 526 501 624 278 426 394
14.212247 1329704208.100401 528 504 623 299 415 393
14.212247 1329704208.108572 529 511 621 313 408 394
14.260901 1329704208.116784 529 512 618 324 404 391
14.260901 1329704208.124964 527 511 620 335 406 390
14.299391 1329704208.133414 524 514 618 345 413 391
14.299391 1329704208.153369 522 517 616 348 420 393
14.345498 1329704208.158487 523 518 613 346 425 393
14.345498 1329704208.166877 523 515 614 343 424 390
14.378781 1329704208.175175 522 512 614 346 428 389
14.378781 1329704208.183300 519 513 612 350 434 388
14.412049 1329704208.191431 523 516 611 356 435 386
14.412049 1329704208.205396 523 517 611 362 430 384
14.453183 1329704208.208290 523 516 612 366 421 384
14.453183 1329704208.217044 527 518 613 374 414 386
14.495351 1329704208.224909 526 518 615 379 413 386
14.495351 1329704208.233447 531 516 615 384 408 383
14.537347 1329704208.241983 534 514 615 387 399 381
14.537347 1329704208.250319 533 511 613 385 392 379
14.577944 1329704208.271328 535 510 612 382 388 379
14.577944 1329704208.295301 535 509 612 380 386 380
14.611349 1329704208.309870 536 509 612 381 382 380
14.611349 1329704208.316928 537 508 610 385 375 379
14.653267 1329704208.325182 537 507 609 385 368 377
14.653267 1329704208.333739 537 505 607 381 366 374
14.695402 1329704208.356146 538 505 605 378 366 371
14.695402 1329704208.359247 538 506 603 376 369 368
14.736906 1329704208.367556 538 507 601 376 371 367
14.736906 1329704208.375226 538 506 600 372 374 368
14.778206 1329704208.383954 539 505 601 370 384 368
14.778206 1329704208.391859 539 506 602 368 392 368
14.812140 1329704208.400503 541 507 600 369 396 370
14.812140 1329704208.408437 541 508 601 372 396 372
14.862858 1329704208.417051 542 507 602 376 394 373
14.862858 1329704208.424916 541 505 604 376 393 375
14.894218 1329704208.433318 544 506 604 380 394 377
14.894218 1329704208.441930 543 505 603 383 391 376
14.936367 1329704208.450038 544 504 602 384 390 375
14.936367 1329704208.458396 544 506 601 381 391 374
14.978645 1329704208.466668 545 506 601 374 396 371
14.978645 1329704208.474958 547 506 600 370 398 370
15.011394 1329704208.483424 548 506 600 367 403 369
15.011394 1329704208.491604 547 506 598 364 405 368
15.053741 1329704208.501661 542 504 594 362 405 368
15.053741 1329704208.508292 537 502 588 359 403 368
15.094363 1329704208.516488 531 501 581 357 403 368
15.094363 1329704208.524810 521 498 574 355 407 369
15.135994 1329704208.533328 512 495 567 353 416 371
15.135994 1329704208.541550 503 494 561 350 426 375
15.178637 1329704208.552807 500 494 556 347 435 379
15.178637 1329704208.558395 497 494 551 345 446 384
15.211028 1329704208.566436 496 493 548 346 455 388
15.211028 1329704208.575105 497 496 546 350 462 392
15.252343 1329704208.583345 504 499 544 357 466 392
15.252343 1329704208.591445 512 501 547 367 464 392
15.298562 1329704208.599857 531 510 552 375 462 400
15.298562 1329704208.608327 566 530 559 375 465 399
15.335596 1329704208.616421 588 527 568 363 466 380
15.335596 1329704208.624799 624 503 578 352 466 371
15.377155 1329704208.633560 652 512 589 354 469 373
15.377155 1329704208.641619 674 540 607 366 481 367
15.421524 1329704208.649651 697 558 631 386 509 366
15.421524 1329704208.660865 711 555 652 402 545 361
15.451733 1329704208.666443 698 537 655 408 541 357
15.451733 1329704208.674706 669 517 650 411 484 358
15.493600 1329704208.683207 640 506 644 417 400 369
15.493600 1329704208.691370 628 508 636 420 329 380
15.535224 1329704208.707352 633 515 626 426 285 392
15.535224 1329704208.710782 637 515 619 437 265 402
15.577256 1329704208.716740 628 510 619 456 260 411
15.577256 1329704208.724769 623 504 623 481 251 412
15.614289 1329704208.733317 630 496 627 511 229 413
15.614289 1329704208.741580 638 503 629 547 199 424
15.652432 1329704208.749612 635 507 633 582 179 435
15.652432 1329704208.758409 631 514 630 603 158 441
15.694879 1329704208.766501 625 512 623 597 133 437
15.694879 1329704208.774586 611 501 616 581 109 426
15.735592 1329704208.783303 606 492 612 568 98 416
15.735592 1329704208.791796 595 488 601 568 89 416
15.777467 1329704208.799904 574 497 589 568 80 419
15.777467 1329704208.808363 555 485 576 548 77 416
15.811686 1329704208.816819 551 477 553 530 61 420
15.811686 1329704208.824546 536 474 530 505 36 428
15.857673 1329704208.833240 520 467 512 466 32 421
15.857673 1329704208.841558 505 464 489 445 49 417
15.894104 1329704208.849596 495 466 464 454 89 411
15.894104 1329704208.858347 477 458 441 463 150 411
15.935799 1329704208.866519 471 449 430 448 230 412
15.935799 1329704208.874426 466 447 433 423 312 406
16.002265 1329704208.883291 467 446 446 402 378 396
16.002265 1329704208.891641 467 447 463 383 427 385
16.025775 1329704208.902191 470 449 480 364 457 372
16.025775 1329704208.908514 471 450 496 343 475 360
16.052711 1329704208.916658 475 448 508 322 481 347
16.052711 1329704208.924238 480 442 520 297 485 337
16.093832 1329704208.933436 484 437 530 275 490 329
16.093832 1329704208.952757 485 437 538 262 496 327
16.136688 1329704208.958002 485 443 546 256 504 327
16.136688 1329704208.966560 487 446 556 252 516 326
16.171491 1329704208.974687 494 447 561 248 520 327
16.171491 1329704208.982902 501 448 569 240 518 330
16.219658 1329704208.991411 507 445 579 227 519 332
16.219658 1329704208.999905 510 448 584 216 516 332
16.252208 1329704209.007724 517 456 591 209 512 335
16.252208 1329704209.016704 519 460 601 201 513 342
16.293710 1329704209.024542 526 460 607 196 514 348
16.293710 1329704209.032895 535 471 608 202 505 356
16.333199 1329704209.041632 536 481 612 212 494 363
16.333199 1329704209.051497 538 483 617 225 487 368
16.372272 1329704209.057975 542 481 619 238 483 375
16.372272 1329704209.066424 546 486 620 244 478 383
16.426139 1329704209.074697 549 495 620 248 468 388
16.426139 1329704209.082734 555 501 619 260 455 390
16.451610 1329704209.091375 555 503 618 275 448 395
16.451610 1329704209.103049 554 503 620 289 447 399
16.493534 1329704209.119558 554 507 619 300 444 399
16.493534 1329704209.135116 557 509 618 305 433 397
16.534926 1329704209.148078 560 510 617 310 425 399
16.534926 1329704209.163114 562 512 617 320 419 400
16.576780 1329704209.178224 560 517 616 333 417 400
16.576780 1329704209.202212 556 517 615 341 417 399
16.617858 1329704209.225737 559 516 613 344 412 398
16.617858 1329704209.249672 562 516 614 350 407 397
16.659477 1329704209.273062 561 518 615 359 402 394
16.659477 1329704209.276121 560 516 614 367 401 390
16.692782 1329704209.282974 561 513 612 371 399 387
16.692782 1329704209.291077 560 514 611 374 391 385
16.734245 1329704209.299861 560 515 610 378 383 382
16.734245 1329704209.307997 558 513 607 383 379 380
16.775775 1329704209.324873 554 511 603 380 376 380
16.775775 1329704209.332791 551 510 599 373 372 379
16.811011 1329704209.341382 552 509 596 368 367 380
16.811011 1329704209.349522 553 510 594 370 367 381
16.850902 1329704209.357678 552 510 596 373 370 381
16.850902 1329704209.366320 551 507 596 374 376 380
16.892672 1329704209.379081 554 507 595 373 378 377
16.892672 1329704209.382380 555 507 596 371 379 375
16.934165 1329704209.391189 557 508 598 373 381 374
16.934165 1329704209.399518 556 509 598 374 382 371
16.971265 1329704209.407942 555 507 599 376 381 371
16.971265 1329704209.416169 556 505 599 377 376 370
17.011014 1329704209.424564 556 505 599 379 371 372
17.011014 1329704209.432573 555 505 598 384 369 372
17.059315 1329704209.441045 556 506 597 386 367 372
17.059315 1329704209.449368 554 505 597 384 366 371
17.100522 1329704209.457687 556 504 596 381 364 371
17.100522 1329704209.466431 555 504 597 379 362 371
17.133797 1329704209.485921 555 505 597 381 361 370
17.133797 1329704209.491054 556 503 597 381 360 369
17.174740 1329704209.499411 555 504 598 379 363 370
17.174740 1329704209.507394 556 504 600 379 363 368
17.222089 1329704209.516203 555 505 600 380 354 371
17.222089 1329704209.524312 554 505 599 382 350 371
17.258827 1329704209.552961 554 505 601 385 350 371
17.258827 1329704209.567607 554 503 601 387 349 371
17.291933 1329704209.574274 552 502 599 386 349 371
17.291933 1329704209.582630 550 503 599 382 350 371
17.336391 1329704209.590985 547 501 603 379 353 371
17.336391 1329704209.599484 549 501 606 378 348 372
17.374794 1329704209.615436 550 502 606 381 332 372
17.374794 1329704209.618818 548 502 606 380 320 372
17.417109 1329704209.635957 544 501 605 377 315 372
17.417109 1329704209.650852 545 500 605 377 313 373
17.465015 1329704209.672653 544 501 605 378 311 373
17.465015 1329704209.675929 538 500 605 377 315 373
17.501654 1329704209.682527 540 500 605 375 323 372
17.501654 1329704209.690481 543 501 606 374 334 374
17.532523 1329704209.700861 544 501 607 374 347 373
17.532523 1329704209.707957 545 498 611 376 367 373
17.575128 1329704209.715841 550 500 615 384 391 374
17.575128 1329704209.724359 553 501 623 385 412 369
17.616633 1329704209.732662 559 497 628 383 427 363
17.616633 1329704209.740483 563 496 630 380 434 360
17.658172 1329704209.753416 562 499 630 372 434 358
17.658172 1329704209.757710 559 501 624 358 424 355
17.691936 1329704209.765604 554 502 615 351 404 356
17.691936 1329704209.774278 547 503 605 344 386 359
17.733735 1329704209.782793 537 500 591 338 375 366
17.733735 1329704209.790548 529 498 574 336 369 372
17.775070 1329704209.799246 513 500 558 340 373 376
17.775070 1329704209.807376 504 503 542 342 382 376
17.816527 1329704209.815896 493 493 531 340 401 375
17.816527 1329704209.824265 479 487 524 339 427 374
17.856531 1329704209.832408 468 485 519 343 456 377
17.856531 1329704209.840520 456 490 519 352 480 375
17.891750 1329704209.848966 460 491 514 362 493 375
17.891750 1329704209.865124 461 485 518 368 502 382
17.933456 1329704209.868253 473 482 524 373 512 391
17.933456 1329704209.874066 486 485 531 379 522 402
17.974925 1329704209.882585 513 490 541 389 526 413
17.974925 1329704209.890327 568 506 555 395 529 419
18.016119 1329704209.898918 638 538 580 380 537 413
18.016119 1329704209.907340 677 535 606 370 547 393
18.060196 1329704209.915780 722 513 625 384 539 375
18.060196 1329704209.923477 738 527 641 401 526 361
18.099100 1329704209.932264 725 534 650 404 507 356
18.099100 1329704209.940032 711 535 654 407 465 363
18.132591 1329704209.948559 685 518 655 419 402 372
18.132591 1329704209.957183 654 508 650 437 339 384
18.174248 1329704209.965255 636 515 640 449 283 391
18.174248 1329704209.973763 626 519 633 463 239 394
18.218916 1329704209.981945 625 519 633 490 210 399
18.218916 1329704209.990288 617 516 646 525 213 403
18.259215 1329704209.998073 609 511 651 551 214 407
18.259215 1329704210.006959 611 507 648 567 193 404
18.291703 1329704210.015282 615 494 649 562 175 394
18.291703 1329704210.023430 622 470 655 552 167 394
18.333494 1329704210.032020 622 469 658 550 146 402
18.333494 1329704210.040512 620 479 656 547 117 408
18.374495 1329704210.048463 628 478 649 560 75 422
18.374495 1329704210.065238 628 492 623 597 17 441
18.416147 1329704210.073200 613 506 589 617 6 452
18.416147 1329704210.081484 593 494 549 606 6 456
18.453118 1329704210.090109 575 482 518 575 5 456
18.453118 1329704210.098239 554 476 498 554 16 452
18.493885 1329704210.106531 534 479 475 558 89 451
18.493885 1329704210.116676 516 471 457 550 150 450
18.533117 1329704210.131461 499 460 447 532 204 441
18.533117 1329704210.146687 487 459 442 498 261 429
18.574404 1329704210.169790 476 457 443 450 307 422
18.574404 1329704210.183842 469 457 448 404 344 410
18.617254 1329704210.189835 469 455 454 359 373 398
18.617254 1329704210.201728 473 451 462 320 400 384
18.659838 1329704210.206344 472 449 472 290 422 375
18.659838 1329704210.215110 470 450 482 274 440 365
18.691084 1329704210.223419 471 449 495 267 458 354
18.691084 1329704210.231544 475 445 504 264 474 341
18.732662 1329704210.239757 478 441 513 261 488 333
18.732662 1329704210.254325 482 438 524 260 498 330
18.774520 1329704210.257124 485 436 533 257 511 328
18.774520 1329704210.271780 487 432 545 258 524 325
18.829317 1329704210.285940 490 436 558 259 533 327
18.829317 1329704210.289876 494 440 565 250 532 326
18.857830 1329704210.297833 502 435 573 237 524 331
18.857830 1329704210.306483 505 438 583 233 519 336
18.891619 1329704210.314963 508 444 594 229 518 339
18.891619 1329704210.322936 515 447 601 221 511 344
18.933039 1329704210.331475 519 450 607 221 495 353
18.933039 1329704210.339730 518 462 616 236 482 363
18.976918 1329704210.348033 521 463 622 243 477 367
18.976918 1329704210.356202 525 460 621 237 466 371
19.017044 1329704210.364807 527 464 623 235 443 379
19.017044 1329704210.383843 526 476 625 245 420 385
19.050976 1329704210.389889 524 487 625 261 409 391
19.050976 1329704210.398450 520 489 623 270 403 389
19.098855 1329704210.406775 524 484 621 272 399 390
19.098855 1329704210.414871 523 488 622 283 397 395
19.133999 1329704210.423407 520 496 620 300 393 401
19.133999 1329704210.439189 517 502 618 317 393 402
19.174565 1329704210.454127 515 505 616 323 395 402
19.174565 1329704210.457219 517 500 615 331 397 397
19.222448 1329704210.464795 517 499 614 342 396 394
19.222448 1329704210.472901 517 503 612 354 395 392
19.257349 1329704210.481630 515 504 612 359 396 388
19.257349 1329704210.489352 517 502 612 359 402 384
19.298893 1329704210.504275 519 501 612 355 403 381
19.298893 1329704210.507034 520 500 612 353 399 375
19.334168 1329704210.515099 520 501 613 360 394 374
19.334168 1329704210.523196 521 505 612 368 390 375
19.373662 1329704210.531592 521 505 613 371 392 374
19.373662 1329704210.539896 524 502 613 369 391 373
19.416336 1329704210.548090 527 499 613 369 390 373
19.416336 1329704210.559736 527 500 611 370 382 374
19.456489 1329704210.564927 528 501 610 373 379 375
19.456489 1329704210.573133 529 500 610 373 381 375
19.496414 1329704210.581236 527 500 610 370 386 375
19.496414 1329704210.589888 528 500 609 371 389 375
19.531566 1329704210.598216 528 500 607 372 388 376
19.531566 1329704210.611951 528 500 606 373 383 377
19.573542 1329704210.614692 529 499 605 373 380 376
19.573542 1329704210.623040 528 499 605 373 377 374
19.618690 1329704210.631224 529 499 604 370 376 372
19.618690 1329704210.639708 529 499 603 370 374 372
19.656879 1329704210.648022 529 501 604 371 375 372
19.656879 1329704210.656204 529 501 603 373 376 373
19.698235 1329704210.665657 530 500 603 376 376 373
19.698235 1329704210.681743 530 499 604 372 376 373
19.731673 1329704210.694508 530 500 604 374 374 373
19.731673 1329704210.699841 530 501 606 375 375 373
19.773361 1329704210.706364 530 500 606 375 374 372
19.773361 1329704210.714544 530 500 605 371 375 373
19.814533 1329704210.727187 529 500 606 371 377 372
19.814533 1329704210.732636 530 502 605 370 375 373
19.856792 1329704210.745552 529 501 606 371 374 371
19.856792 1329704210.748524 531 500 606 371 374 370
19.897912 1329704210.756220 531 501 605 370 376 370
19.897912 1329704210.764642 531 501 607 371 380 370
19.931321 1329704210.773244 531 501 608 374 380 369
19.931321 1329704210.783800 533 501 609 376 378 369
19.972995 1329704210.789977 533 501 609 376 374 369
19.972995 1329704210.798092 533 499 611 379 372 368
20.014670 1329704210.806676 532 499 611 376 374 367
20.014670 1329704210.814885 532 501 611 377 374 366
20.056071 1329704210.833795 533 502 613 378 371 366
20.056071 1329704210.848143 535 499 615 380 367 366
20.098086 1329704210.856378 536 497 617 381 370 368
20.098086 1329704210.865012 536 496 617 379 375 368
20.131533 1329704210.872861 533 497 616 377 371 368
20.131533 1329704210.881801 531 497 614 372 361 367
20.172645 1329704210.889503 528 495 611 367 350 367
20.172645 1329704210.898382 524 496 604 364 338 369
20.214450 1329704210.906306 519 498 596 364 324 369
20.214450 1329704210.914986 515 498 587 367 313 370
20.261013 1329704210.922834 507 497 579 372 311 371
20.261013 1329704210.931727 502 500 569 374 312 368
20.299114 1329704210.939448 504 500 560 369 319 366
20.299114 1329704210.955737 503 498 551 360 341 363
20.339341 1329704210.958880 507 498 546 347 380 365
20.339341 1329704210.964391 506 502 543 338 433 364
20.372468 1329704210.973121 516 505 542 332 494 361
20.372468 1329704210.981468 528 509 545 326 554 357
20.413921 1329704210.989649 543 508 551 316 616 357
20.413921 1329704210.998536 559 511 563 315 666 359
20.457100 1329704211.012948 579 518 573 333 679 365
20.457100 1329704211.024776 592 520 589 356 659 370
20.497388 1329704211.041061 584 510 603 370 617 375
20.497388 1329704211.063699 574 497 609 362 570 381
20.539092 1329704211.066859 561 494 609 350 524 390
20.539092 1329704211.072721 539 495 602 348 480 393
20.572286 1329704211.081204 522 492 594 357 454 396
20.572286 1329704211.089262 510 499 587 379 440 402
20.614703 1329704211.097631 493 505 579 401 425 402
20.614703 1329704211.105899 495 498 572 418 410 401
20.655115 1329704211.114362 540 482 575 436 407 403
20.655115 1329704211.122824 587 494 580 439 421 410
20.696829 1329704211.131064 636 534 587 416 435 406
20.696829 1329704211.141691 676 533 595 404 444 378
20.731113 1329704211.147779 713 510 608 416 453 371
20.731113 1329704211.155812 734 516 624 442 470 379
20.773691 1329704211.164368 726 524 636 461 488 378
20.773691 1329704211.172768 703 519 636 458 475 374
20.821205 1329704211.182883 664 501 637 439 414 374
20.821205 1329704211.197325 640 489 636 442 326 388
20.855656 1329704211.218756 633 485 628 461 253 406
20.855656 1329704211.222391 639 493 612 472 205 425
20.896839 1329704211.230684 642 499 601 476 181 436
20.896839 1329704211.239009 634 487 594 475 183 443
20.941702 1329704211.247628 630 473 594 485 207 448
20.941702 1329704211.255329 630 462 602 507 248 451
20.972338 1329704211.271259 635 466 613 543 281 459
20.972338 1329704211.274216 640 490 622 585 275 471
21.013859 1329704211.290809 625 505 632 617 236 475
21.013859 1329704211.323401 624 495 632 637 178 476
21.062589 1329704211.335686 613 499 624 645 117 475
21.062589 1329704211.350218 596 500 608 630 68 461
21.097363 1329704211.365732 589 490 583 595 31 446
21.097363 1329704211.372481 581 487 562 562 6 438
21.138991 1329704211.383388 567 483 539 543 6 433
21.138991 1329704211.389042 553 462 511 513 6 426
21.172571 1329704211.397302 538 452 483 481 6 420
21.172571 1329704211.405305 529 439 465 460 29 408
21.213660 1329704211.413969 515 428 449 453 86 410
21.213660 1329704211.422452 512 418 435 452 149 415
21.254687 1329704211.430000 502 417 425 442 210 420
21.254687 1329704211.439125 487 417 422 418 271 420
21.304172 1329704211.447119 491 413 428 396 328 416
21.304172 1329704211.455587 492 405 439 365 377 408
21.338094 1329704211.463634 493 404 454 331 414 403
21.338094 1329704211.472448 488 412 471 301 439 398
21.372075 1329704211.480168 484 419 487 273 453 390
21.372075 1329704211.496967 485 420 504 241 459 383
21.413635 1329704211.499732 484 422 520 205 460 381
21.413635 1329704211.505870 484 421 537 169 459 380
21.457633 1329704211.513883 486 427 548 134 451 382
21.457633 1329704211.522322 486 436 556 102 432 393
21.497034 1329704211.530240 481 440 562 73 418 405
21.497034 1329704211.538978 485 441 563 52 416 414
21.539044 1329704211.547239 495 446 564 39 421 429
21.539044 1329704211.555498 499 448 571 50 432 442
21.572212 1329704211.563692 492 469 581 85 453 452
21.572212 1329704211.572320 492 493 588 130 475 450
21.613629 1329704211.580389 496 502 592 172 482 441
21.613629 1329704211.588782 496 504 597 220 476 436
21.656613 1329704211.605962 494 522 606 274 466 431
21.656613 1329704211.608982 493 530 610 325 451 423
21.697082 1329704211.613734 490 522 615 358 441 414
21.697082 1329704211.622106 490 516 618 379 432 410
21.742284 1329704211.630076 489 519 619 396 424 411
21.742284 1329704211.639117 488 522 618 417 417 411
21.772336 1329704211.647189 487 516 616 426 413 409
21.772336 1329704211.655718 485 510 614 421 411 404
21.813803 1329704211.663735 487 507 612 412 408 401
21.813803 1329704211.672345 486 505 613 397 407 399
21.855087 1329704211.680154 487 501 613 384 406 396
21.855087 1329704211.688597 487 499 610 373 404 394
21.897204 1329704211.696900 491 501 608 363 398 394
21.897204 1329704211.705598 494 502 609 357 395 392
21.948001 1329704211.714470 498 499 611 357 393 388
21.948001 1329704211.722086 498 501 610 365 389 385
21.971455 1329704211.729794 501 503 610 372 387 382
21.971455 1329704211.738977 502 500 611 375 386 377
22.013039 1329704211.759463 505 498 611 377 383 374
22.013039 1329704211.765025 504 498 609 379 378 371
22.061493 1329704211.772069 504 497 607 380 375 371
22.061493 1329704211.780303 504 496 607 379 376 370
22.096325 1329704211.788129 504 494 607 376 375 371
22.096325 1329704211.796845 504 495 605 373 374 370
22.140088 1329704211.805143 504 495 603 373 373 370
22.140088 1329704211.813442 504 495 603 373 373 371
22.172893 1329704211.821972 505 497 603 373 379 371
22.172893 1329704211.830193 506 497 603 371 381 371
22.212518 1329704211.838363 506 496 602 370 384 369
22.212518 1329704211.846698 506 497 601 370 385 370
22.254351 1329704211.855127 507 497 602 371 391 370
22.254351 1329704211.874848 508 497 603 372 395 370
22.296359 1329704211.880110 508 497 604 374 394 370
22.296359 1329704211.888285 509 497 604 373 390 370
22.337697 1329704211.896298 510 497 604 372 389 369
22.337697 1329704211.905281 510 495 606 371 391 367
22.371042 1329704211.913043 511 497 607 374 392 367
22.371042 1329704211.928648 511 497 609 374 390 366
22.412317 1329704211.942280 511 495 611 373 390 367
22.412317 1329704211.946138 513 496 614 374 389 368
22.454239 1329704211.954216 514 496 615 378 387 369
22.454239 1329704211.962983 514 496 615 377 387 369
22.506929 1329704211.970694 515 495 616 375 385 369
22.506929 1329704211.981337 515 495 615 375 378 370
22.531925 1329704211.987992 515 495 613 377 370 370
22.531925 1329704211.995836 511 495 611 375 363 368
22.570992 1329704212.004276 509 495 607 370 353 369
22.570992 1329704212.012905 507 497 603 367 342 367
22.613682 1329704212.020879 504 496 599 366 340 367
22.613682 1329704212.030164 503 495 596 369 347 368
22.653918 1329704212.038261 501 495 595 370 355 367
22.653918 1329704212.045970 501 496 595 373 363 368
22.695493 1329704212.054355 502 497 595 378 371 369
22.695493 1329704212.062903 503 498 598 379 376 368
22.737242 1329704212.071234 505 496 600 377 380 368
22.737242 1329704212.082077 506 496 601 375 380 367
22.780610 1329704212.087847 506 495 603 374 379 368
22.780610 1329704212.095877 507 496 603 372 376 369
22.823278 1329704212.104236 508 496 604 371 374 370
22.823278 1329704212.112746 507 496 604 372 376 369
22.853777 1329704212.120799 508 496 604 372 378 369
22.853777 1329704212.129378 507 496 604 371 377 369
22.895418 1329704212.138258 507 497 603 371 376 370
22.895418 1329704212.145951 507 496 603 372 377 370
22.933572 1329704212.154144 507 496 603 373 379 370
22.933572 1329704212.162704 506 497 604 375 379 370
22.978893 1329704212.170761 508 497 605 373 380 370
22.978893 1329704212.181452 507 496 606 374 380 370
23.012314 1329704212.193647 509 496 607 374 383 370
23.012314 1329704212.197870 510 495 609 375 388 372
23.053519 1329704212.210621 512 494 611 372 397 371
23.053519 1329704212.224598 516 493 613 367 402 371
23.095978 1329704212.231004 520 494 614 363 408 372
23.095978 1329704212.237144 521 494 616 364 420 373
23.136943 1329704212.257377 519 493 615 360 436 374
23.136943 1329704212.270965 522 495 611 354 444 372
23.182943 1329704212.279233 519 498 604 345 444 371
23.182943 1329704212.287479 515 498 594 335 439 372
23.212081 1329704212.295621 512 499 581 329 431 374
23.212081 1329704212.307416 508 501 570 326 421 376
23.253601 1329704212.312357 505 501 559 327 412 378
23.253601 1329704212.324501 498 501 552 332 412 374
23.294852 1329704212.328887 494 499 543 336 417 373
23.294852 1329704212.337337 495 499 535 340 421 372
23.343360 1329704212.345712 496 499 529 345 423 370
23.343360 1329704212.353899 496 499 526 352 429 371
23.375304 1329704212.362255 499 497 526 362 443 373
23.375304 1329704212.370453 506 497 526 370 463 372
23.421788 1329704212.379180 511 495 528 367 483 375
23.421788 1329704212.387563 519 486 536 359 510 387
23.456432 1329704212.395635 520 490 551 365 542 407
23.456432 1329704212.404016 531 504 563 384 547 418
23.497952 1329704212.412570 554 491 579 417 523 415
23.497952 1329704212.420414 591 507 601 431 501 416
23.549636 1329704212.429041 619 523 631 407 499 415
23.549636 1329704212.437274 638 521 659 374 500 405
23.577694 1329704212.445843 668 503 677 367 490 381
23.577694 1329704212.453980 670 503 683 376 484 371
23.619221 1329704212.462428 676 528 689 397 496 377
23.619221 1329704212.470559 657 530 682 411 496 382
23.652528 1329704212.479242 647 501 669 408 446 383
23.652528 1329704212.487226 624 488 660 398 379 391
23.692758 1329704212.495663 612 489 645 391 328 393
23.692758 1329704212.503993 607 490 627 391 301 398
23.735808 1329704212.512261 602 492 616 395 288 401
23.735808 1329704212.520380 592 494 610 410 285 402
23.778452 1329704212.528890 586 502 605 424 297 399
23.778452 1329704212.537233 579 507 602 432 313 397
23.818730 1329704212.545184 575 519 605 443 331 391
23.818730 1329704212.553829 573 538 618 468 350 382
23.852427 1329704212.562176 571 546 631 497 363 375
23.852427 1329704212.570044 580 542 645 519 356 367
23.905902 1329704212.584887 590 530 661 543 337 364
23.905902 1329704212.589365 609 513 676 567 308 368
23.936202 1329704212.603588 623 492 689 579 270 374
23.936202 1329704212.614545 640 486 686 585 209 386
23.980799 1329704212.637260 650 488 676 591 132 394
23.980799 1329704212.648352 650 477 662 593 58 399
24.011158 1329704212.653361 659 465 636 595 6 410
24.011158 1329704212.661567 643 465 614 594 6 420
24.052666 1329704212.670043 631 469 585 586 5 428
24.052666 1329704212.678122 617 469 557 569 5 436
24.094432 1329704212.686532 598 465 536 551 5 442
24.094432 1329704212.694457 585 452 514 540 6 444
24.135231 1329704212.703009 573 447 491 530 6 450
24.135231 1329704212.711563 544 444 468 501 25 451
24.180148 1329704212.723897 525 446 452 478 75 443
24.180148 1329704212.727950 511 450 434 463 136 435
24.211765 1329704212.736417 500 452 425 447 194 429
24.211765 1329704212.744662 489 453 423 429 255 424
24.252245 1329704212.753270 482 453 424 410 307 418
24.252245 1329704212.768394 479 453 430 389 353 412
24.293685 1329704212.769802 474 452 439 367 390 401
24.293685 1329704212.777871 471 450 450 346 416 392
24.343732 1329704212.786593 465 444 464 322 440 382
24.343732 1329704212.794431 462 436 478 297 461 370
24.384334 1329704212.802887 466 431 489 271 478 362
24.384334 1329704212.811499 464 430 500 247 495 359
24.411007 1329704212.819862 464 430 512 226 509 361
24.411007 1329704212.827750 467 428 523 208 526 365
24.452350 1329704212.836424 467 434 535 192 538 371
24.452350 1329704212.844515 466 435 549 176 550 375
24.494905 1329704212.853100 472 444 557 165 554 382
24.494905 1329704212.861595 474 453 561 154 545 389
24.535629 1329704212.881354 476 451 569 139 532 394
24.535629 1329704212.886853 483 452 577 134 525 399
24.577805 1329704212.894479 487 460 583 141 517 406
24.577805 1329704212.902728 487 470 588 163 513 412
24.611452 1329704212.911530 489 479 595 197 519 415
24.611452 1329704212.919846 488 484 603 229 537 416
24.652587 1329704212.933292 494 489 607 253 543 412
24.652587 1329704212.936291 497 495 613 278 528 408
24.703270 1329704212.944579 499 504 618 311 502 406
24.703270 1329704212.953199 500 508 623 338 482 410
24.736114 1329704212.961689 500 500 626 352 469 416
24.736114 1329704212.970543 505 498 627 356 453 420
24.772240 1329704212.978675 505 502 626 364 436 423
24.772240 1329704212.987106 506 505 626 369 421 425
24.819434 1329704212.995178 507 506 627 372 414 422
24.819434 1329704213.003857 510 506 628 373 412 414
24.852339 1329704213.012065 509 506 626 372 403 406
24.852339 1329704213.020670 508 504 622 367 394 396
24.893755 1329704213.028816 506 502 619 363 382 388
24.893755 1329704213.037031 507 500 614 364 373 384
24.936023 1329704213.045093 508 498 611 372 367 383
24.936023 1329704213.053493 508 501 609 381 365 385
24.976843 1329704213.061889 506 503 608 384 369 385
24.976843 1329704213.070488 507 500 608 383 371 385
25.027502 1329704213.078418 506 496 606 377 372 384
25.027502 1329704213.086870 507 497 604 374 372 384
25.051692 1329704213.094937 509 497 604 376 374 384
25.051692 1329704213.103686 510 496 604 376 377 384
25.093887 1329704213.124075 510 495 604 371 378 383
25.093887 1329704213.128822 511 496 603 370 379 380
25.156555 1329704213.137182 511 496 603 370 378 378
25.156555 1329704213.145331 513 495 603 371 379 377
25.176898 1329704213.153703 513 496 604 370 381 375
25.176898 1329704213.161868 513 496 603 370 380 375
25.219266 1329704213.176912 514 495 602 370 380 374
25.219266 1329704213.181910 514 494 601 372 383 374
25.252198 1329704213.194859 514 496 602 373 387 373
25.252198 1329704213.209270 514 496 602 373 393 372
25.293112 1329704213.232816 517 494 603 370 401 371
25.293112 1329704213.247399 519 493 606 365 411 371
25.334974 1329704213.253720 525 494 609 360 423 373
25.334974 1329704213.265668 531 492 615 355 447 373
25.376381 1329704213.270443 537 488 620 348 469 378
25.376381 1329704213.278636 542 492 624 349 485 383
25.418502 1329704213.287218 547 495 625 355 493 386
25.418502 1329704213.295332 546 496 621 360 494 385
25.451713 1329704213.303604 544 496 615 359 483 379
25.451713 1329704213.311952 544 499 607 354 461 375
25.492783 1329704213.321345 535 503 597 350 437 370
25.492783 1329704213.328312 527 502 582 345 418 364
25.534605 1329704213.337615 518 503 566 346 401 363
25.534605 1329704213.344942 507 499 557 351 397 363
25.576039 1329704213.354150 498 497 548 357 406 365
25.576039 1329704213.365800 487 496 539 363 420 368
25.627669 1329704213.371949 479 499 529 370 430 370
25.627669 1329704213.378401 475 501 521 374 435 368
25.651006 1329704213.387437 468 495 518 373 447 368
25.651006 1329704213.395243 460 485 515 369 469 368
25.692123 1329704213.403980 466 485 510 363 488 370
25.692123 1329704213.417817 464 493 510 366 496 377
25.745051 1329704213.420526 474 484 519 372 507 384
25.745051 1329704213.428464 503 483 537 379 529 391
25.775718 1329704213.436852 584 501 552 394 552 397
25.775718 1329704213.444996 670 518 584 393 567 390
25.816636 1329704213.453572 705 530 617 373 581 373
25.816636 1329704213.461972 750 538 637 345 575 370
25.855667 1329704213.473574 777 524 654 349 547 368
25.855667 1329704213.478659 752 513 659 382 504 371
25.891563 1329704213.486784 726 507 651 394 448 372
25.891563 1329704213.495081 693 518 646 391 389 393
25.933110 1329704213.503760 667 515 635 401 335 403
25.933110 1329704213.513762 639 499 625 412 290 411
25.975178 1329704213.520776 620 494 613 416 262 413
25.975178 1329704213.528270 617 502 602 423 252 413
26.016669 1329704213.537511 613 513 600 437 255 409
26.016669 1329704213.544979 611 516 604 464 269 409
26.064869 1329704213.553781 610 516 608 493 285 408
26.064869 1329704213.561743 613 507 617 513 301 404
26.092296 1329704213.570286 621 493 626 529 299 405
26.092296 1329704213.578535 623 487 637 553 275 414
26.133621 1329704213.587201 629 486 645 577 243 424
26.133621 1329704213.594732 639 474 647 584 201 432
26.175544 1329704213.603920 642 457 646 581 151 441
26.175544 1329704213.611614 641 463 641 581 93 453
26.211463 1329704213.628962 637 475 621 578 32 453
26.211463 1329704213.637103 621 484 595 571 6 450
26.263298 1329704213.645217 606 481 569 558 5 444
26.263298 1329704213.653764 580 469 543 545 5 442
26.292232 1329704213.661846 563 459 517 529 5 445
26.292232 1329704213.670474 543 453 491 508 6 445
26.334124 1329704213.690769 516 450 466 499 41 444
26.334124 1329704213.695394 499 452 449 496 95 440
26.371614 1329704213.703969 477 448 438 481 164 433
26.371614 1329704213.711625 472 442 432 450 238 424
26.424543 1329704213.720301 474 438 431 412 299 417
26.424543 1329704213.728496 469 439 442 375 349 410
26.458704 1329704213.743974 469 441 453 345 390 402
26.458704 1329704213.749422 468 443 468 321 419 394
26.491537 1329704213.753543 471 442 482 302 440 386
26.491537 1329704213.761635 473 441 495 280 457 375
26.533796 1329704213.770182 474 442 506 258 468 365
26.533796 1329704213.778325 476 443 516 244 474 358
26.574970 1329704213.787601 478 438 529 229 482 353
26.574970 1329704213.803977 482 438 543 212 489 347
26.616731 1329704213.818113 484 444 555 194 486 346
26.616731 1329704213.821069 488 445 565 178 476 350
26.658890 1329704213.828467 491 440 569 159 469 353
26.658890 1329704213.837222 497 429 577 130 479 360
26.702210 1329704213.845473 504 433 589 110 499 370
26.702210 1329704213.854082 502 458 601 116 509 385
26.734951 1329704213.861884 507 483 611 141 501 394
26.734951 1329704213.869656 516 489 614 171 481 401
26.795437 1329704213.878168 516 487 617 193 463 410
26.795437 1329704213.886400 508 490 620 217 449 416
26.811262 1329704213.894907 508 498 619 240 434 422
26.811262 1329704213.904176 507 506 617 268 421 426
26.853026 1329704213.911632 504 515 616 296 422 430
26.853026 1329704213.919692 501 522 616 322 426 428
26.902679 1329704213.927955 502 520 614 343 426 423
26.902679 1329704213.936440 502 516 612 357 419 418
26.932208 1329704213.944941 500 516 614 368 415 413
26.932208 1329704213.956403 503 519 615 379 414 409
26.974924 1329704213.961580 506 522 614 390 411 404
26.974924 1329704213.969228 507 520 613 395 407 398
27.016811 1329704213.978124 506 515 613 393 406 390
27.016811 1329704213.986349 506 512 612 388 405 388
27.061738 1329704214.005926 507 512 613 384 400 386
27.061738 1329704214.029398 508 512 613 385 393 383
27.099347 1329704214.043741 508 510 612 382 388 381
27.099347 1329704214.045777 507 508 612 376 386 378
27.132907 1329704214.052471 508 506 612 371 384 374
27.132907 1329704214.060769 509 504 610 372 382 374
27.177058 1329704214.069314 512 504 610 378 380 372
27.177058 1329704214.090216 514 504 610 383 379 369
27.218172 1329704214.094260 513 502 612 386 380 367
27.218172 1329704214.102079 514 499 610 386 379 365
27.259174 1329704214.110862 516 497 609 386 373 363
27.259174 1329704214.119107 517 498 607 386 370 365
27.300845 1329704214.127670 516 499 607 385 370 366
27.300845 1329704214.135941 516 498 605 382 370 368
27.333182 1329704214.144344 515 496 604 378 370 367
27.333182 1329704214.151910 514 494 603 371 371 369
27.374273 1329704214.160624 515 497 603 370 373 369
27.374273 1329704214.168894 515 500 602 370 374 370
27.416204 1329704214.179222 516 498 601 369 376 367
27.465068 1329704214.185951 517 501 602 371 384 366
27.511699 1329704214.194224 516 498 603 374 387 366
27.532435 1329704214.201891 519 499 605 374 391 367
27.574119 1329704214.210403 520 498 606 374 389 369
27.616807 1329704214.218977 520 496 608 374 386 368
27.668171 1329704214.227459 523 500 611 377 383 369
27.699503 1329704214.235805 523 498 612 374 377 368
27.732648 1329704214.244107 525 500 616 376 384 369
27.772150 1329704214.252119 528 499 616 372 391 367
27.815945 1329704214.260255 526 502 613 369 395 363
27.857762 1329704214.268810 523 501 604 350 408 361
27.891179 1329704214.277275 515 501 587 328 430 360
27.931093 1329704214.285708 514 501 576 319 438 361
27.931093 1329704214.294074 512 501 564 310 445 358
27.974048 1329704214.301887 511 503 552 309 458 353
27.974048 1329704214.310411 503 504 546 317 476 349
28.015932 1329704214.318745 494 501 539 329 499 346
28.015932 1329704214.327356 491 492 534 339 521 350
28.056962 1329704214.335642 492 484 535 352 534 361
28.056962 1329704214.343996 493 475 535 368 543 377
28.098458 1329704214.351952 495 479 535 388 538 395
28.098458 1329704214.360323 492 488 537 399 530 408
28.135299 1329704214.368766 493 493 543 406 530 414
28.135299 1329704214.377299 505 486 548 408 530 416
28.173351 1329704214.385726 531 481 554 404 527 422
28.173351 1329704214.394005 565 510 552 399 515 424
28.228935 1329704214.401816 614 533 555 412 505 411
28.228935 1329704214.410205 654 530 566 430 524 394
28.255977 1329704214.418626 715 537 584 428 552 392
28.255977 1329704214.427345 781 546 602 421 562 376
28.298510 1329704214.435622 813 522 634 413 577 347
28.298510 1329704214.443979 774 492 652 407 583 332
28.339326 1329704214.451767 709 496 647 400 512 337
28.339326 1329704214.460250 648 502 642 409 383 356
28.372572 1329704214.468708 636 502 628 429 285 390
28.372572 1329704214.477373 639 501 612 451 235 414
28.414190 1329704214.485669 643 498 601 462 213 427
28.414190 1329704214.493987 632 496 598 475 206 438
28.456694 1329704214.501838 627 496 600 500 219 444
28.456694 1329704214.510259 632 490 606 531 237 448
28.499436 1329704214.518454 640 488 611 559 244 454
28.499436 1329704214.527180 640 487 616 587 238 460
28.531901 1329704214.535523 635 470 623 614 220 464
28.531901 1329704214.543596 638 450 626 630 194 473
28.572904 1329704214.552333 638 454 625 623 156 478
28.572904 1329704214.560364 634 461 620 600 114 478
28.614790 1329704214.568139 627 459 609 576 74 482
28.614790 1329704214.577247 623 467 592 560 37 491
28.666985 1329704214.595686 607 474 574 546 9 495
28.666985 1329704214.601892 590 473 549 530 6 493
28.698471 1329704214.609953 576 465 528 520 6 489
28.698471 1329704214.618481 559 453 517 515 12 486
28.745722 1329704214.626925 548 455 494 522 39 486
28.745722 1329704214.635369 526 459 473 503 61 481
28.772403 1329704214.645517 505 458 459 481 96 471
28.772403 1329704214.651950 488 459 443 460 149 456
28.814293 1329704214.660061 479 464 434 435 208 446
28.814293 1329704214.668454 467 461 428 405 273 435
28.855751 1329704214.676611 462 457 429 374 333 424
28.855751 1329704214.685231 463 456 436 343 385 410
28.898654 1329704214.693591 463 452 447 313 425 396
28.898654 1329704214.701906 463 449 461 284 457 382
28.930671 1329704214.709911 465 445 475 257 481 365
28.930671 1329704214.718531 468 437 489 227 503 350
28.972748 1329704214.726874 475 431 505 197 524 343
28.972748 1329704214.735251 481 431 521 171 540 341
29.014173 1329704214.743618 485 431 540 146 553 341
29.014173 1329704214.752138 492 428 556 123 559 341
29.056151 1329704214.759979 500 433 570 110 554 344
29.056151 1329704214.768527 503 441 583 110 538 349
29.098181 1329704214.776489 506 452 596 113 519 355
29.098181 1329704214.785364 510 455 609 118 504 362
29.131288 1329704214.793437 517 463 615 134 484 371
29.131288 1329704214.801786 517 475 616 162 458 382
29.176310 1329704214.810413 511 485 619 193 442 390
29.176310 1329704214.818435 509 488 620 216 437 397
29.214384 1329704214.826620 509 488 618 237 432 405
29.214384 1329704214.835233 511 498 617 267 424 412
29.261912 1329704214.843630 507 502 618 294 418 411
29.261912 1329704214.851970 504 505 616 312 411 412
29.290791 1329704214.859857 502 507 614 326 403 415
29.290791 1329704214.868389 500 509 611 343 393 415
29.331375 1329704214.876584 497 514 611 357 388 409
29.331375 1329704214.885325 497 517 611 361 384 403
29.372871 1329704214.895421 497 511 609 361 381 395
29.372871 1329704214.901585 498 507 608 360 377 391
29.429196 1329704214.909808 498 506 607 361 381 392
29.429196 1329704214.918527 501 509 607 368 387 393
29.455965 1329704214.926313 504 507 607 375 398 395
29.455965 1329704214.935285 508 506 609 376 408 393
29.497592 1329704214.943891 509 504 611 373 409 388
29.497592 1329704214.951815 511 503 612 369 405 382
29.542456 1329704214.959780 512 502 612 367 397 377
29.542456 1329704214.968229 513 502 611 368 388 374
29.572963 1329704214.976152 514 503 610 368 384 374
29.572963 1329704214.985257 514 504 611 370 384 374
29.614354 1329704214.993435 514 503 608 372 385 374
29.614354 1329704215.001689 515 503 608 375 384 375
29.656793 1329704215.009654 515 501 607 376 385 377
29.656793 1329704215.018218 515 502 606 375 387 378
29.699212 1329704215.025946 515 502 606 377 388 379
29.699212 1329704215.035008 515 503 606 380 386 377
29.731129 1329704215.052540 515 501 606 379 384 377
29.731129 1329704215.059855 514 502 607 376 383 375
29.776378 1329704215.069371 515 500 607 372 379 372
29.776378 1329704215.076339 514 501 605 373 378 370
29.814349 1329704215.084690 514 502 605 372 378 371
29.814349 1329704215.093429 515 501 606 373 380 370
29.855674 1329704215.109456 515 500 607 375 380 370
29.855674 1329704215.111890 516 502 607 377 380 372
29.906445 1329704215.126111 516 503 608 377 379 371
29.906445 1329704215.134751 516 501 606 377 378 372
29.932949 1329704215.142783 516 501 606 376 378 371
29.932949 1329704215.152065 517 501 606 374 378 372
29.972147 1329704215.161939 518 501 607 374 380 371
29.972147 1329704215.168012 518 501 607 374 379 371
30.024711 1329704215.175958 518 501 607 374 376 370
30.024711 1329704215.184737 518 500 607 374 374 370
30.055266 1329704215.192791 518 500 607 373 375 371
30.055266 1329704215.201395 519 501 606 371 376 371
30.096914 1329704215.220837 518 501 605 373 376 371
30.096914 1329704215.234321 518 501 605 375 376 372
30.138858 1329704215.236538 518 500 606 374 376 371
30.138858 1329704215.242578 518 499 606 373 379 371
30.172081 1329704215.250981 519 500 606 371 383 369
30.172081 1329704215.259432 518 502 606 372 387 371
30.213401 1329704215.267745 521 502 606 376 386 371
30.213401 1329704215.280131 522 501 607 375 387 370
30.255244 1329704215.283781 522 500 610 373 388 369
30.255244 1329704215.292594 524 501 612 373 391 371
30.308038 1329704215.300716 526 501 613 375 391 369
30.308038 1329704215.309088 526 500 613 376 390 370
30.338183 1329704215.317700 527 501 613 377 391 370
30.338183 1329704215.326493 526 500 612 374 395 371
30.371909 1329704215.334463 525 499 611 372 399 371
30.371909 1329704215.342347 525 498 608 371 403 372
30.413518 1329704215.350431 525 502 606 372 407 371
30.413518 1329704215.359197 524 504 602 367 415 368
30.455195 1329704215.371043 524 504 597 362 425 367
30.455195 1329704215.402621 526 504 591 359 433 367
30.496484 1329704215.413519 525 505 586 355 440 363
30.496484 1329704215.427632 523 505 582 351 444 362
30.538206 1329704215.441363 527 505 580 349 448 364
30.538206 1329704215.443854 528 503 579 348 456 362
30.580911 1329704215.450988 525 503 576 347 462 360
30.580911 1329704215.459060 523 505 572 351 461 359
30.613250 1329704215.467218 520 501 570 358 455 359
30.613250 1329704215.475766 512 500 569 364 456 362
30.654820 1329704215.483897 510 496 566 373 454 366
30.654820 1329704215.493104 509 494 563 378 455 371
30.703260 1329704215.501751 507 492 559 381 461 379
30.703260 1329704215.511497 513 495 556 383 466 383
30.730476 1329704215.517781 514 501 556 384 477 383
30.730476 1329704215.529146 516 495 555 384 491 380
30.771265 1329704215.534684 519 491 552 379 501 386
30.771265 1329704215.543160 525 496 554 372 508 392
30.813648 1329704215.551817 526 497 560 372 511 393
30.813648 1329704215.559877 549 488 559 377 506 397
30.853746 1329704215.568584 572 482 564 384 497 412
30.853746 1329704215.579377 587 501 568 394 489 423
30.895020 1329704215.584583 623 529 571 413 476 410
30.895020 1329704215.593821 675 523 581 416 474 382
30.936759 1329704215.601667 707 503 588 387 478 369
30.936759 1329704215.609857 720 509 606 371 477 356
30.978253 1329704215.617804 717 513 619 381 476 344
30.978253 1329704215.626516 701 507 624 389 467 340
31.011695 1329704215.634411 676 505 623 389 437 346
31.011695 1329704215.643231 654 502 621 394 386 354
31.053386 1329704215.651503 633 504 618 399 339 368
31.053386 1329704215.659962 623 506 611 405 300 382
31.095375 1329704215.667429 622 503 606 412 272 390
31.095375 1329704215.676266 622 502 605 421 255 397
31.140435 1329704215.686393 619 502 605 432 246 402
31.140435 1329704215.693599 621 503 605 447 244 402
31.171535 1329704215.702157 618 505 608 467 244 400
31.171535 1329704215.709878 610 497 612 491 248 398
31.213561 1329704215.717578 608 486 613 518 242 404
31.213561 1329704215.726150 607 486 617 542 235 411
31.253569 1329704215.741259 601 486 622 555 234 417
31.253569 1329704215.765200 600 477 621 567 227 421
31.295618 1329704215.778968 594 468 618 585 206 433
31.295618 1329704215.784889 588 469 615 607 183 442
31.343992 1329704215.792453 582 473 609 619 165 448
31.343992 1329704215.801424 582 474 599 614 150 451
31.370785 1329704215.809408 576 464 591 601 145 451
31.370785 1329704215.825130 567 459 579 591 139 451
31.412285 1329704215.827775 562 463 568 581 135 453
31.412285 1329704215.834527 561 464 559 578 135 452
31.453882 1329704215.842990 551 455 550 576 145 453
31.453882 1329704215.850814 541 452 541 575 153 456
31.495555 1329704215.859161 530 455 532 568 158 456
31.495555 1329704215.867422 519 452 523 549 162 454
31.536571 1329704215.877788 511 450 512 522 160 449
31.536571 1329704215.884359 510 452 501 496 153 443
31.578276 1329704215.892280 498 451 488 467 150 433
31.578276 1329704215.900897 485 451 473 436 151 422
31.611964 1329704215.909351 478 447 460 407 164 414
31.611964 1329704215.926791 471 444 452 379 196 408
31.653678 1329704215.934612 467 436 444 359 239 400
31.653678 1329704215.942722 467 429 435 350 283 395
31.694988 1329704215.951002 467 423 431 336 325 397
31.694988 1329704215.959346 466 416 434 320 366 393
31.736512 1329704215.967698 461 411 445 304 408 385
31.736512 1329704215.976200 462 408 457 294 440 374
31.778324 1329704215.985305 465 409 469 283 462 366
31.778324 1329704215.992872 466 408 483 271 478 358
31.811501 1329704216.001087 467 405 497 257 496 352
31.811501 1329704216.009561 471 403 508 239 506 348
31.853441 1329704216.017382 475 406 518 222 506 352
31.853441 1329704216.026203 476 412 529 207 503 359
31.895061 1329704216.035002 480 413 542 189 501 365
31.895061 1329704216.042769 485 418 550 172 496 369
31.937184 1329704216.050794 487 428 557 160 483 379
31.937184 1329704216.059222 489 435 563 152 468 386
31.977728 1329704216.067652 492 435 569 141 465 390
31.977728 1329704216.075963 497 440 571 129 467 399
32.011997 1329704216.092175 502 448 574 120 472 406
32.011997 1329704216.094963 504 461 580 130 480 412
32.053755 1329704216.100971 505 471 585 148 492 417
32.053755 1329704216.110264 511 480 588 160 497 420
32.095694 1329704216.117784 516 487 592 177 494 418
32.095694 1329704216.126131 517 494 596 205 486 412
32.132653 1329704216.134894 517 500 599 240 473 408
32.132653 1329704216.142964 516 508 605 270 467 405
32.188436 1329704216.150729 513 507 612 289 468 402
32.188436 1329704216.159069 515 507 616 309 464 401
32.211919 1329704216.167447 518 509 617 327 455 400
32.211919 1329704216.176198 517 509 620 342 444 398
32.253658 1329704216.196697 516 509 621 352 436 398
32.253658 1329704216.219859 517 506 623 361 427 398
32.295342 1329704216.243900 514 503 623 370 419 397
32.295342 1329704216.256327 512 503 623 372 413 395
32.335156 1329704216.262826 514 502 622 367 409 395
32.335156 1329704216.285446 516 501 620 363 404 392
32.386382 1329704216.292971 516 499 618 362 399 390
32.386382 1329704216.300820 514 501 618 366 394 390
32.411792 1329704216.309234 515 503 616 372 391 389
32.411792 1329704216.317406 516 502 615 372 387 387
32.453384 1329704216.325641 517 503 614 373 383 386
32.453384 1329704216.334427 518 503 612 376 377 384
32.494805 1329704216.342840 518 502 611 380 372 383
32.494805 1329704216.350879 518 501 609 383 369 381
32.536180 1329704216.366144 517 502 608 381 371 382
32.536180 1329704216.381087 519 499 608 380 374 379
32.577891 1329704216.404621 520 498 609 382 374 378
32.577891 1329704216.419684 519 498 609 383 375 379
32.619318 1329704216.426255 520 498 608 381 372 377
32.619318 1329704216.434106 519 497 606 378 372 377
32.652275 1329704216.450780 522 496 606 375 373 375
32.652275 1329704216.465457 522 494 607 374 376 375
32.694399 1329704216.468433 521 494 608 373 378 376
32.694399 1329704216.476022 522 496 608 377 376 379
32.735919 1329704216.483982 522 494 608 380 369 379
32.777438 1329704216.492736 521 494 609 379 368 378
32.812747 1329704216.512294 520 494 610 377 364 374
32.853520 1329704216.517333 520 494 611 371 358 371
32.894146 1329704216.525571 520 493 612 371 357 371
32.933215 1329704216.534001 521 495 613 375 359 375
32.972112 1329704216.542564 519 495 614 376 356 377
33.019696 1329704216.550725 519 493 610 372 347 375
33.052062 1329704216.558425 515 494 607 373 342 375
33.094786 1329704216.566993 512 497 601 376 331 377
33.135529 1329704216.576277 511 499 597 372 335 375
33.178011 1329704216.583746 505 497 594 369 345 371
33.218877 1329704216.592524 503 496 588 367 357 370
33.253144 1329704216.600618 502 494 587 363 384 367
33.292936 1329704216.608514 504 494 590 359 416 365
33.335116 1329704216.617008 509 495 593 347 455 364
33.378201 1329704216.626469 511 497 587 341 498 365
33.417796 1329704216.633355 511 497 582 338 512 364
33.417796 1329704216.641555 511 498 575 341 516 364
33.452114 1329704216.650081 511 500 568 351 514 364
33.452114 1329704216.659308 511 502 564 358 515 365
33.493469 1329704216.666774 506 501 561 360 524 366
33.493469 1329704216.675192 505 498 557 359 531 366
33.535358 1329704216.683179 506 495 554 354 535 366
33.535358 1329704216.692407 507 491 554 356 538 371
33.579911 1329704216.699848 506 489 557 359 539 378
33.579911 1329704216.708544 509 491 560 366 530 387
33.621143 1329704216.716569 522 494 562 377 515 398
33.621143 1329704216.725117 534 503 567 387 500 397
33.651586 1329704216.733128 544 498 576 386 490 385
33.651586 1329704216.741337 570 487 580 368 473 388
33.692974 1329704216.750080 601 502 584 352 454 407
33.692974 1329704216.758529 617 535 593 366 437 413
33.736292 1329704216.766696 662 531 597 393 434 385
33.736292 1329704216.775267 682 505 600 388 445 354
33.787666 1329704216.783244 680 508 608 359 466 347
33.787666 1329704216.791297 678 522 612 357 478 342
33.817359 1329704216.800656 672 516 613 376 469 343
33.817359 1329704216.808316 660 505 616 392 448 359
33.859459 1329704216.816692 643 500 618 403 422 379
33.859459 1329704216.825902 623 503 615 409 389 395
33.892559 1329704216.833149 608 508 607 413 357 401
33.892559 1329704216.842123 605 509 603 420 339 403
33.934146 1329704216.860142 599 511 602 430 338 402
33.934146 1329704216.866780 594 510 601 442 343 398
33.975298 1329704216.875144 594 511 603 454 358 394
33.975298 1329704216.883428 597 511 610 467 379 392
34.017527 1329704216.891301 602 504 614 483 383 390
34.017527 1329704216.899875 612 497 618 501 366 392
34.059534 1329704216.908062 621 488 625 518 345 396
34.059534 1329704216.917345 623 478 634 530 316 409
34.105125 1329704216.924896 630 474 635 550 265 427
34.105125 1329704216.933296 639 475 633 571 206 444
34.152525 1329704216.941898 646 475 624 595 154 462
34.152525 1329704216.949442 647 476 614 610 111 472
34.176693 1329704216.968104 648 477 602 620 74 480
34.176693 1329704216.974787 642 469 596 617 53 484
34.211548 1329704216.982911 633 468 584 610 40 488
34.211548 1329704216.991422 629 482 565 610 16 488
34.251299 1329704216.999426 609 489 548 611 6 480
34.251299 1329704217.007735 580 479 534 601 6 470
34.292752 1329704217.019474 556 457 516 576 12 457
34.292752 1329704217.024768 545 451 494 550 31 452
34.334189 1329704217.032709 522 443 477 517 68 452
34.334189 1329704217.041607 503 435 460 482 121 455
34.375456 1329704217.049439 489 435 448 443 186 449
34.375456 1329704217.057853 480 437 442 413 245 445
34.417418 1329704217.066231 471 436 443 394 292 437
34.417418 1329704217.074752 467 433 447 372 331 427
34.450738 1329704217.082818 463 433 452 343 361 420
34.450738 1329704217.091396 461 433 460 316 384 411
34.492396 1329704217.099771 464 431 469 294 404 399
34.492396 1329704217.108514 464 430 478 276 423 389
34.534126 1329704217.116613 463 428 488 256 443 381
34.534126 1329704217.124563 465 428 500 231 457 374
34.575537 1329704217.132701 470 427 510 210 468 370
34.575537 1329704217.141075 473 428 521 185 476 370
34.617519 1329704217.151251 475 431 534 159 485 369
34.617519 1329704217.158946 476 437 546 140 488 369
34.650811 1329704217.170779 482 443 555 127 483 371
34.650811 1329704217.174481 487 447 563 121 475 376
34.692328 1329704217.183243 487 449 573 111 473 382
34.692328 1329704217.191422 493 452 582 110 478 388
34.733995 1329704217.199636 503 459 590 124 482 395
34.733995 1329704217.207996 507 469 594 150 480 405
34.770828 1329704217.216542 508 479 598 185 477 411
34.770828 1329704217.224390 509 488 600 221 474 412
34.817545 1329704217.232768 508 489 605 242 472 414
34.817545 1329704217.241226 505 488 610 263 475 421
34.851140 1329704217.249431 501 500 610 288 467 424
34.851140 1329704217.258393 501 510 611 314 453 420
34.892405 1329704217.266167 500 509 615 336 446 418
34.892405 1329704217.283829 498 509 619 352 441 421
34.934467 1329704217.291151 498 513 620 365 434 422
34.934467 1329704217.299159 500 510 621 376 426 419
34.975828 1329704217.307634 504 506 623 381 420 416
34.975828 1329704217.316195 503 505 623 381 415 412
35.019672 1329704217.324298 504 505 621 382 410 411
35.019672 1329704217.343593 507 505 620 379 406 408
35.058648 1329704217.357595 506 503 619 367 404 405
35.058648 1329704217.359974 506 500 619 359 402 400
35.092376 1329704217.365991 508 500 616 359 397 396
35.092376 1329704217.374392 508 503 612 363 386 391
35.134321 1329704217.382529 508 504 610 364 379 386
35.134321 1329704217.390982 510 501 609 365 377 384
35.175517 1329704217.403813 510 501 609 367 377 382
35.175517 1329704217.407213 511 501 608 373 377 382
35.216997 1329704217.416149 510 502 607 377 376 382
35.216997 1329704217.424192 512 502 606 379 375 383
35.252012 1329704217.432408 513 500 606 379 376 382
35.252012 1329704217.440874 513 500 605 376 375 382
35.292054 1329704217.449201 513 500 604 374 373 381
35.292054 1329704217.457239 512 498 602 374 375 379
35.336975 1329704217.465650 512 499 603 372 381 380
35.336975 1329704217.474212 512 500 605 374 387 378
35.375404 1329704217.482331 514 501 605 374 389 377
35.375404 1329704217.490512 514 499 605 373 388 374
35.416654 1329704217.499030 516 498 606 373 388 374
35.416654 1329704217.508015 516 500 607 377 387 374
35.458245 1329704217.515702 517 501 608 379 388 373
35.458245 1329704217.526716 518 500 608 376 387 373
35.500999 1329704217.538842 519 497 609 372 382 371
35.500999 1329704217.540883 518 498 609 370 381 369
35.543553 1329704217.552331 520 498 610 369 380 369
35.543553 1329704217.556981 519 498 611 370 378 368
35.580237 1329704217.565248 519 498 610 369 373 368
35.580237 1329704217.573675 518 498 608 370 368 368
35.616466 1329704217.582114 518 498 607 372 365 368
35.616466 1329704217.590320 517 498 606 375 368 369
35.658734 1329704217.598859 517 499 605 376 368 369
35.658734 1329704217.607993 517 498 604 374 369 368
35.709756 1329704217.615446 516 499 604 370 370 367
35.709756 1329704217.623926 517 499 604 367 373 366
35.733251 1329704217.632269 517 500 605 369 376 367
35.733251 1329704217.640456 517 499 605 367 377 367
35.774704 1329704217.648738 517 499 605 367 374 366
35.774704 1329704217.657106 516 500 605 368 375 365
35.816465 1329704217.665446 516 500 606 368 375 366
35.816465 1329704217.674179 517 499 606 370 375 365
35.864714 1329704217.682504 516 500 606 372 373 366
35.864714 1329704217.690718 516 500 606 372 372 367
35.891264 1329704217.699510 516 501 606 374 371 366
35.891264 1329704217.719536 516 500 606 375 369 366
35.932709 1329704217.724242 516 499 606 375 369 366
35.932709 1329704217.732724 516 501 606 376 372 365
35.974289 1329704217.741283 515 501 607 375 371 366
35.974289 1329704217.749300 517 499 607 372 374 366
36.016372 1329704217.757659 517 498 607 368 377 366
36.016372 1329704217.768310 518 500 608 368 380 366
36.058705 1329704217.774259 519 501 608 366 385 366
36.058705 1329704217.782729 520 501 608 365 391 364
36.091432 1329704217.790909 521 499 609 359 398 364
36.091432 1329704217.800095 523 500 609 357 408 364
36.133606 1329704217.809372 524 499 608 354 418 364
36.133606 1329704217.832819 525 496 605 348 430 365
36.174001 1329704217.840847 522 497 601 346 435 366
36.174001 1329704217.849091 521 501 596 344 435 365
36.215628 1329704217.857828 515 503 590 339 435 364
36.215628 1329704217.866031 511 501 582 335 435 363
36.257602 1329704217.874778 507 500 572 334 439 365
36.257602 1329704217.882677 501 500 566 335 446 364
36.290842 1329704217.896837 494 498 562 336 455 364
36.290842 1329704217.901806 484 497 557 334 467 364
36.332367 1329704217.916837 486 498 548 334 473 368
36.332367 1329704217.929268 491 499 544 333 481 374
36.374224 1329704217.934470 484 495 546 334 500 380
36.374224 1329704217.940748 482 498 548 343 520 388
36.414964 1329704217.949690 491 507 547 362 527 393
36.414964 1329704217.962773 501 503 549 386 518 396
36.457143 1329704217.967737 520 497 550 399 494 402
36.457143 1329704217.974469 560 501 556 393 476 405
36.499047 1329704217.982769 599 524 571 391 488 399
36.499047 1329704217.990983 634 536 589 390 512 389
36.531775 1329704217.999312 670 530 599 386 514 377
36.531775 1329704218.008180 688 535 607 386 498 368
36.573105 1329704218.017557 687 530 613 387 488 370
36.573105 1329704218.024394 689 518 614 401 482 381
36.626643 1329704218.032587 691 522 616 418 474 390
36.626643 1329704218.041071 677 526 623 422 467 391
36.656531 1329704218.049361 654 520 627 421 451 393
36.656531 1329704218.059651 635 515 628 424 413 392
36.698998 1329704218.074879 620 513 630 435 366 392
36.698998 1329704218.107396 616 512 630 448 316 399
36.731607 1329704218.131023 615 513 629 466 280 407
36.731607 1329704218.144830 613 515 628 494 255 413
36.773553 1329704218.149094 613 513 625 524 239 416
36.773553 1329704218.157853 616 507 623 552 227 421
36.817764 1329704218.165977 614 500 623 582 219 425
36.817764 1329704218.174723 617 489 620 611 212 433
36.856886 1329704218.182157 620 479 616 641 198 442
36.856886 1329704218.190996 619 476 611 662 184 444
36.898302 1329704218.198946 621 470 603 673 166 449
36.898302 1329704218.207316 616 477 592 679 140 460
36.938287 1329704218.216831 607 489 585 683 119 466
36.938287 1329704218.223969 589 488 569 670 107 465
36.989198 1329704218.232301 572 486 550 638 95 462
36.989198 1329704218.240924 551 474 537 595 88 454
37.015612 1329704218.249076 540 461 525 562 91 441
37.015612 1329704218.257148 528 453 514 536 109 433
37.057053 1329704218.271919 514 445 499 506 141 428
37.057053 1329704218.276778 503 440 483 475 170 423
37.098613 1329704218.291797 491 432 472 442 193 415
37.098613 1329704218.324774 486 422 470 404 220 403
37.147185 1329704218.336893 483 415 468 375 253 393
37.147185 1329704218.342804 480 416 464 352 282 389
37.173350 1329704218.348939 477 412 464 326 309 386
37.173350 1329704218.357520 477 404 470 302 337 379
37.214811 1329704218.374317 479 401 477 285 365 373
37.214811 1329704218.388653 480 402 486 275 387 368
37.259353 1329704218.391301 480 406 493 262 402 364
37.259353 1329704218.399002 480 407 503 243 411 362
37.298445 1329704218.407105 480 410 512 229 418 361
37.298445 1329704218.415844 479 414 520 220 423 365
37.331723 1329704218.423977 482 416 527 209 424 367
37.331723 1329704218.438443 484 417 534 193 421 369
37.371659 1329704218.440917 487 420 542 176 419 374
37.371659 1329704218.448764 489 427 550 159 423 379
37.423334 1329704218.456951 494 430 557 150 425 384
37.423334 1329704218.465638 500 433 562 147 429 394
37.456379 1329704218.477566 499 442 569 141 433 402
37.456379 1329704218.481861 501 450 576 137 438 407
37.498805 1329704218.492982 505 454 583 141 444 410
37.498805 1329704218.509841 506 460 588 141 450 413
37.531496 1329704218.531353 509 474 593 151 454 420
37.531496 1329704218.533957 511 488 598 172 454 422
37.573526 1329704218.540379 511 497 603 207 447 426
37.573526 1329704218.548551 512 506 606 245 443 431
37.614757 1329704218.556953 509 508 613 267 446 429
37.614757 1329704218.565431 508 505 616 283 448 424
37.656657 1329704218.575254 511 508 616 304 439 423
37.656657 1329704218.581959 513 514 615 330 423 421
37.697937 1329704218.590285 511 520 617 354 415 419
37.697937 1329704218.598755 512 521 618 366 416 415
37.731554 1329704218.606541 514 516 619 372 417 409
37.731554 1329704218.615325 512 514 618 372 415 404
37.773791 1329704218.623683 512 515 616 372 411 403
37.773791 1329704218.631641 514 514 616 373 407 401
37.814598 1329704218.640244 517 513 617 375 407 398
37.814598 1329704218.648617 518 512 618 375 404 394
37.864185 1329704218.656608 518 509 616 371 399 390
37.864185 1329704218.671691 518 509 614 371 387 388
37.891275 1329704218.674306 519 507 613 371 378 387
37.891275 1329704218.682020 520 508 612 371 374 386
37.937049 1329704218.690092 520 507 611 371 374 383
37.937049 1329704218.698534 520 505 609 371 374 382
37.972628 1329704218.706375 519 504 607 369 378 380
37.972628 1329704218.714828 522 504 606 372 379 379
38.014452 1329704218.723160 523 505 605 377 379 380
38.014452 1329704218.731586 523 505 605 379 383 377
38.056054 1329704218.739585 523 504 606 377 386 375
38.056054 1329704218.748026 523 503 606 377 386 375
38.097206 1329704218.756104 524 503 606 378 383 376
38.097206 1329704218.764609 526 503 605 377 382 374
38.130745 1329704218.782373 526 501 607 373 385 373
38.130745 1329704218.789792 526 501 609 369 389 373
38.172392 1329704218.798026 527 502 609 368 391 372
38.172392 1329704218.806409 527 501 609 367 391 373
38.228181 1329704218.814413 530 502 610 367 390 373
38.228181 1329704218.822860 529 501 611 369 394 374
38.255852 1329704218.830783 531 502 610 371 402 374
38.255852 1329704218.839479 531 500 609 370 406 373
38.297324 1329704218.847631 531 502 606 368 409 373
38.297324 1329704218.856016 527 503 603 362 415 370
38.330635 1329704218.864467 523 502 597 356 421 367
38.330635 1329704218.872840 520 503 589 349 426 368
38.374051 1329704218.881004 516 503 579 342 429 369
38.374051 1329704218.889471 512 504 570 336 438 366
38.427246 1329704218.897830 507 503 564 332 448 364
38.427246 1329704218.905975 502 499 558 327 459 359
38.456670 1329704218.916167 496 494 552 325 470 357
38.456670 1329704218.922865 496 494 548 325 481 359
38.497281 1329704218.941687 492 491 547 329 490 363
38.497281 1329704218.947678 489 490 546 334 498 369
38.541622 1329704218.956134 495 497 546 343 500 378
38.541622 1329704218.964236 499 500 546 359 497 385
38.572085 1329704218.972495 510 494 547 371 489 389
38.572085 1329704218.985490 535 486 548 375 484 400
38.613247 1329704218.989216 574 491 557 377 496 425
38.613247 1329704218.997850 598 499 572 390 525 449
38.655176 1329704219.006001 620 512 577 421 538 438
38.655176 1329704219.014115 645 521 581 443 525 407
38.697186 1329704219.022424 683 534 593 435 510 403
38.697186 1329704219.039421 695 539 606 415 494 390
38.737919 1329704219.053392 704 531 616 404 474 367
38.737919 1329704219.076379 691 516 627 403 460 353
38.771074 1329704219.088098 675 519 630 404 446 352
38.771074 1329704219.101563 658 517 628 417 421 361
38.812754 1329704219.113956 647 511 627 435 386 374
38.812754 1329704219.116287 637 509 630 448 357 387
38.854408 1329704219.122106 635 509 633 456 333 398
38.854408 1329704219.130862 627 506 635 474 305 414
38.898465 1329704219.146017 625 508 634 504 271 429
38.898465 1329704219.148221 624 507 632 538 239 440
38.934027 1329704219.155782 632 500 629 560 212 444
38.934027 1329704219.164335 644 489 625 577 193 448
38.976592 1329704219.172279 645 476 623 601 179 450
38.976592 1329704219.182740 636 465 618 626 166 457
39.013212 1329704219.205747 629 466 606 629 160 467
39.013212 1329704219.207958 620 471 594 616 152 474
39.055006 1329704219.214144 608 473 586 596 146 475
39.055006 1329704219.223251 592 469 578 576 138 481
39.110925 1329704219.230555 583 467 568 564 125 488
39.110925 1329704219.239069 568 469 555 558 113 490
39.137328 1329704219.247446 560 470 539 552 103 488
39.137328 1329704219.266016 548 466 522 534 96 482
39.171182 1329704219.279985 528 456 511 514 99 469
39.171182 1329704219.282377 519 456 500 497 111 461
39.213213 1329704219.288875 503 454 487 482 131 454
39.213213 1329704219.297076 495 455 476 463 159 447
39.254405 1329704219.305735 482 451 467 434 200 431
39.254405 1329704219.314004 476 448 459 409 243 418
39.293691 1329704219.327354 468 443 455 387 286 408
39.293691 1329704219.330724 469 436 456 360 327 395
39.330382 1329704219.338939 469 431 461 335 364 385
39.330382 1329704219.347473 468 430 466 308 392 378
39.372049 1329704219.355565 467 429 475 280 413 369
39.372049 1329704219.364099 468 428 485 258 434 360
39.412654 1329704219.371948 470 425 497 238 457 353
39.412654 1329704219.381880 475 423 507 217 475 345
39.454856 1329704219.388980 481 426 518 195 489 344
39.454856 1329704219.397253 488 429 532 181 495 346
39.496186 1329704219.405547 495 432 544 169 497 347
39.496186 1329704219.413761 497 432 553 150 498 346
39.540019 1329704219.422125 502 434 562 133 496 351
39.540019 1329704219.441601 508 442 570 122 491 356
39.571964 1329704219.447010 511 448 578 119 491 360
39.571964 1329704219.455340 514 453 586 119 496 368
39.612586 1329704219.464094 519 459 591 123 502 375
39.612586 1329704219.472204 523 471 596 142 503 389
39.654579 1329704219.480112 528 484 597 173 495 398
39.654579 1329704219.489053 530 493 604 198 487 407
39.696341 1329704219.497360 531 498 612 219 484 414
39.696341 1329704219.505624 531 502 618 247 472 422
39.737677 1329704219.513831 531 513 619 281 449 425
39.737677 1329704219.522283 531 520 623 313 427 421
39.771398 1329704219.530286 528 520 627 340 414 415
39.771398 1329704219.538836 530 518 626 363 406 410
39.813008 1329704219.553207 528 515 627 381 400 404
39.813008 1329704219.555688 527 514 628 390 395 397
39.854233 1329704219.570146 527 512 626 390 394 390
39.854233 1329704219.583871 529 510 626 388 395 385
39.896199 1329704219.606871 528 504 627 379 399 382
39.896199 1329704219.618553 526 503 626 375 395 382
39.944613 1329704219.623596 527 505 623 372 387 383
39.944613 1329704219.637771 525 504 621 369 377 384
39.970577 1329704219.640370 525 501 619 361 370 385
39.970577 1329704219.648105 523 499 618 352 369 383
40.011875 1329704219.655424 526 500 616 350 363 383
40.011875 1329704219.663885 524 499 613 352 358 378
40.053709 1329704219.673559 522 499 610 355 354 375
40.053709 1329704219.680341 520 499 609 359 356 374
40.100036 1329704219.689365 519 499 608 361 361 373
40.100036 1329704219.697190 519 500 606 361 366 370
40.137217 1329704219.705614 518 500 603 361 368 369
40.137217 1329704219.713853 519 500 603 363 368 368
40.179120 1329704219.721849 520 497 604 363 370 366
40.179120 1329704219.730698 520 497 605 360 375 364
40.219117 1329704219.750058 520 497 605 358 377 364
40.219117 1329704219.755217 522 500 605 361 378 364
40.254163 1329704219.763575 523 502 606 365 376 365
40.254163 1329704219.772386 523 503 609 366 376 364
40.295234 1329704219.780217 526 503 610 362 373 363
40.295234 1329704219.788754 525 501 608 362 371 362
40.337231 1329704219.797150 523 506 607 364 370 363
40.337231 1329704219.805392 523 505 608 367 370 366
40.386937 1329704219.813664 522 501 608 368 374 367
40.386937 1329704219.822036 522 503 608 370 377 372
40.412035 1329704219.830421 524 505 608 373 380 374
40.412035 1329704219.839000 525 506 609 374 383 373
40.454112 1329704219.847111 523 506 611 370 385 371
40.454112 1329704219.855157 523 502 611 371 383 369
40.495111 1329704219.863848 526 505 609 375 377 370
40.495111 1329704219.872172 523 504 608 382 369 367
40.537490 1329704219.880319 521 502 608 384 366 370
40.537490 1329704219.888616 520 504 607 386 365 371
40.578626 1329704219.896886 524 504 603 383 367 372
40.578626 1329704219.905159 524 504 600 381 374 368
40.612078 1329704219.913452 519 501 594 379 390 368
40.612078 1329704219.921719 513 496 582 378 405 366
40.653234 1329704219.930101 502 502 572 381 415 368
40.653234 1329704219.938848 500 507 565 386 426 362
40.695394 1329704219.946796 495 504 561 391 441 357
40.695394 1329704219.961653 495 494 558 387 465 356
40.737143 1329704219.973226 496 487 554 376 488 361
40.737143 1329704219.980104 501 485 551 368 505 368
40.778424 1329704219.988217 505 490 548 365 514 373
40.778424 1329704219.996963 507 495 546 364 513 377
40.819435 1329704220.005275 512 496 546 363 512 380
40.819435 1329704220.013174 523 492 546 359 517 382
40.853730 1329704220.021582 534 495 550 354 526 382
40.853730 1329704220.030296 535 501 551 347 529 382
40.894571 1329704220.038698 551 501 555 340 528 379
40.894571 1329704220.046865 574 494 564 338 528 386
40.936363 1329704220.055363 600 509 577 348 529 392
40.936363 1329704220.063328 622 517 589 374 524 385
40.977700 1329704220.071830 650 509 592 394 507 372
40.977700 1329704220.080116 670 512 601 386 485 373
41.018809 1329704220.088317 690 518 612 389 476 374
41.018809 1329704220.096529 708 515 623 393 483 364
41.051998 1329704220.105123 695 515 633 391 485 359
41.051998 1329704220.114556 672 517 631 386 464 361
41.094296 1329704220.121305 647 513 622 391 415 370
41.094296 1329704220.129879 628 508 617 407 355 380
41.135320 1329704220.137870 618 503 612 420 307 388
41.135320 1329704220.146146 621 504 608 429 272 397
41.177843 1329704220.154481 621 508 607 438 254 406
41.177843 1329704220.165416 618 516 606 457 250 410
41.211404 1329704220.171026 614 519 607 482 252 410
41.211404 1329704220.179541 611 510 611 494 256 407
41.252867 1329704220.187703 612 497 615 502 255 405
41.252867 1329704220.196036 615 492 624 517 247 410
41.294074 1329704220.204220 618 495 628 537 232 413
41.294074 1329704220.212840 614 486 632 559 215 416
41.336034 1329704220.221758 611 477 626 581 187 424
41.336034 1329704220.229372 608 471 623 595 155 432
41.377708 1329704220.237872 609 470 619 599 132 436
41.377708 1329704220.245915 604 468 610 605 116 441
41.411554 1329704220.254565 596 469 597 606 102 444
41.411554 1329704220.262875 591 467 583 609 86 449
41.452329 1329704220.270758 582 464 570 614 77 455
41.452329 1329704220.279431 569 464 554 614 69 460
41.495379 1329704220.287885 554 466 541 613 60 463
41.495379 1329704220.296224 541 462 525 600 62 462
41.539076 1329704220.304434 535 460 503 577 57 457
41.539076 1329704220.313176 520 464 484 549 51 454
41.577343 1329704220.324185 499 461 470 514 68 447
41.577343 1329704220.329887 487 459 454 486 108 435
41.618880 1329704220.338552 482 460 439 466 163 429
41.618880 1329704220.346916 470 453 423 441 221 429
41.652438 1329704220.355290 467 442 415 402 286 426
41.652438 1329704220.363894 467 435 418 359 346 422
41.693759 1329704220.371628 464 431 427 319 398 414
41.693759 1329704220.380094 460 429 440 283 439 401
41.735303 1329704220.388466 458 426 458 248 471 389
41.735303 1329704220.396977 458 423 476 211 499 375
41.777394 1329704220.405088 465 425 487 185 517 367
41.777394 1329704220.413481 468 425 499 168 522 367
41.810874 1329704220.421423 467 422 513 153 528 373
41.810874 1329704220.430185 475 424 529 138 535 377
41.852098 1329704220.438710 477 431 542 128 536 381
41.852098 1329704220.452924 479 440 553 124 528 386
41.893995 1329704220.455779 484 447 563 122 520 388
41.893995 1329704220.463503 486 451 572 121 510 392
41.936081 1329704220.471660 490 453 583 125 502 398
41.936081 1329704220.479700 492 462 592 140 494 403
41.977762 1329704220.488582 496 470 597 158 483 407
41.977762 1329704220.497063 498 476 596 177 472 414
42.019289 1329704220.505020 502 482 598 198 462 416
42.019289 1329704220.513343 504 489 602 224 456 417
42.052467 1329704220.521344 503 494 607 251 457 418
42.052467 1329704220.530089 507 500 612 275 461 415
42.093980 1329704220.538645 506 504 615 301 461 416
42.093980 1329704220.552730 507 512 618 331 452 414
42.135955 1329704220.558351 508 516 618 351 437 411
42.135955 1329704220.572340 510 516 619 363 420 409
42.191652 1329704220.584758 506 511 619 364 410 406
42.191652 1329704220.599143 505 511 619 367 405 404
42.219409 1329704220.605004 501 512 619 369 406 402
42.219409 1329704220.613285 498 509 617 370 405 402
42.252251 1329704220.621662 496 509 615 368 402 401
42.252251 1329704220.629710 498 510 615 366 400 398
42.308221 1329704220.638381 499 508 614 365 401 392
42.308221 1329704220.646473 500 504 615 361 401 387
42.335446 1329704220.654849 500 505 614 359 400 384
42.335446 1329704220.663089 503 508 612 364 396 382
42.376714 1329704220.671502 506 510 613 371 391 381
42.376714 1329704220.679608 508 507 613 375 388 376
42.418888 1329704220.688159 509 504 612 373 383 373
42.418888 1329704220.696433 509 505 610 375 378 369
42.454333 1329704220.704673 509 507 609 380 375 368
42.454333 1329704220.714806 511 503 608 383 376 367
42.508042 1329704220.721465 511 503 607 384 378 366
42.508042 1329704220.741391 511 503 606 385 378 367
42.535587 1329704220.764928 511 501 604 383 381 364
42.535587 1329704220.778930 511 499 605 380 385 364
42.576772 1329704220.781516 512 498 605 376 387 362
42.576772 1329704220.787819 513 499 606 374 390 363
42.618450 1329704220.796289 513 499 606 373 387 363
42.618450 1329704220.805141 514 499 608 371 386 364
42.652022 1329704220.824932 515 498 607 370 385 364
42.652022 1329704220.829587 515 499 606 370 383 364
42.693821 1329704220.837951 515 500 606 370 385 365
42.693821 1329704220.846269 517 499 607 373 386 364
42.735166 1329704220.854329 516 499 607 374 386 364
42.735166 1329704220.862834 517 500 608 376 384 365
42.776076 1329704220.871172 518 500 608 376 384 364
42.776076 1329704220.879752 518 499 609 375 388 364
42.827657 1329704220.887815 520 499 609 374 390 365
42.827657 1329704220.896341 522 497 611 374 393 366
42.854842 1329704220.904259 524 500 615 376 400 366
42.854842 1329704220.913331 526 503 616 375 412 364
42.893431 1329704220.934555 526 500 615 374 423 361
42.893431 1329704220.938085 527 501 610 372 432 358
42.941412 1329704220.946407 523 498 604 366 437 356
42.941412 1329704220.954797 527 499 596 358 440 354
42.976673 1329704220.962973 526 499 589 351 443 352
42.976673 1329704220.974210 522 500 582 343 450 352
43.010558 1329704220.979886 520 502 575 337 462 353
43.010558 1329704220.988055 517 500 567 335 472 351
43.051170 1329704220.996838 515 501 561 332 482 351
43.051170 1329704221.004607 511 505 559 325 491 349
43.100418 1329704221.012953 513 504 555 318 497 347
43.100418 1329704221.021714 511 500 555 317 501 348
43.134931 1329704221.030515 514 495 555 320 506 355
43.134931 1329704221.038281 515 493 557 326 514 366
43.191272 1329704221.046243 509 496 561 337 521 373
43.191272 1329704221.054796 510 497 561 354 524 380
43.217547 1329704221.063012 523 495 558 368 520 391
43.217547 1329704221.071418 542 495 556 372 516 406
43.250701 1329704221.082190 556 508 560 372 515 418
43.250701 1329704221.088300 565 519 568 379 521 416
43.302413 1329704221.096222 581 515 572 395 527 410
43.302413 1329704221.104845 605 502 573 407 522 406
43.333594 1329704221.113147 629 517 575 400 501 397
43.333594 1329704221.122249 634 529 579 393 478 389
43.375053 1329704221.138210 652 517 583 400 463 393
43.375053 1329704221.150700 675 514 583 410 439 392
43.416587 1329704221.156328 692 516 588 413 418 384
43.416587 1329704221.162950 699 524 596 408 415 375
43.458352 1329704221.171910 691 517 597 404 416 368
43.458352 1329704221.180070 675 509 598 407 407 368
43.491490 1329704221.188188 654 509 601 416 388 371
43.491490 1329704221.204093 642 509 604 424 361 377
43.536351 1329704221.207502 631 505 608 428 329 386
43.536351 1329704221.212928 627 503 610 435 291 397
43.575102 1329704221.221209 632 505 614 448 256 412
43.575102 1329704221.231844 630 511 621 466 238 426
43.617325 1329704221.238338 631 513 626 485 227 435
43.617325 1329704221.249977 638 503 629 501 211 439
43.650688 1329704221.254579 639 493 635 520 192 443
43.650688 1329704221.262741 636 486 637 544 165 450
43.692165 1329704221.271268 636 487 632 580 128 457
43.692165 1329704221.279798 629 488 630 611 97 461
43.731555 1329704221.287893 626 487 622 637 71 461
43.731555 1329704221.303856 619 494 606 666 47 467
43.784376 1329704221.327644 605 496 595 679 38 466
43.784376 1329704221.341054 586 483 574 672 41 460
43.817078 1329704221.345498 580 475 553 662 41 458
43.817078 1329704221.353917 568 469 537 650 48 456
43.850995 1329704221.362583 555 472 519 644 55 458
43.850995 1329704221.376646 539 472 504 634 63 451
43.891699 1329704221.379499 529 469 491 611 77 441
43.891699 1329704221.387097 512 466 475 576 98 433
43.933326 1329704221.395659 501 459 461 537 132 426
43.933326 1329704221.404121 489 457 446 498 180 417
43.975459 1329704221.413219 481 451 434 462 235 410
43.975459 1329704221.420659 474 442 425 422 291 403
44.024752 1329704221.439333 474 435 424 386 339 400
44.024752 1329704221.446194 473 430 429 350 379 394
44.062590 1329704221.453574 470 426 438 311 412 387
44.062590 1329704221.462471 471 424 447 278 433 382
44.112880 1329704221.470199 470 421 457 253 448 379
44.112880 1329704221.478909 468 416 473 234 466 370
44.132867 1329704221.487013 471 411 485 209 486 361
44.132867 1329704221.495714 477 411 494 189 499 358
44.174528 1329704221.503741 480 411 508 178 503 358
44.174528 1329704221.512161 483 410 524 175 509 360
44.216450 1329704221.520413 486 412 537 171 518 358
44.216450 1329704221.529037 488 419 548 159 523 360
44.258663 1329704221.548559 490 427 557 146 517 362
44.258663 1329704221.553642 497 433 566 141 503 363
44.302833 1329704221.561758 503 436 575 135 493 365
44.302833 1329704221.570602 504 441 583 125 484 371
44.334248 1329704221.578775 508 452 590 120 478 375
44.334248 1329704221.588718 512 460 596 123 472 382
44.385028 1329704221.601662 517 468 598 137 470 389
44.385028 1329704221.615594 519 477 600 154 467 393
44.429271 1329704221.623771 524 482 603 169 463 394
44.429271 1329704221.628543 526 488 607 181 459 394
44.458636 1329704221.636831 522 496 609 198 450 395
44.458636 1329704221.645373 524 501 610 225 438 396
44.492107 1329704221.653662 521 504 612 254 425 396
44.492107 1329704221.662685 516 509 615 278 419 400
44.534145 1329704221.670432 514 512 613 299 410 401
44.534145 1329704221.678817 515 517 614 316 402 401
44.582883 1329704221.686845 512 520 616 330 397 401
44.582883 1329704221.695323 510 517 616 341 395 398
44.616650 1329704221.704233 508 514 616 354 392 401
44.616650 1329704221.723937 508 515 616 365 389 404
44.658611 1329704221.728600 508 517 616 371 385 402
44.658611 1329704221.736870 506 514 615 370 383 399
44.691598 1329704221.745347 508 514 615 374 381 393
44.691598 1329704221.753469 507 514 614 382 379 388
44.734264 1329704221.762001 508 513 612 389 374 385
44.734264 1329704221.770191 508 513 611 390 371 383
44.774830 1329704221.778738 508 510 610 388 371 379
44.774830 1329704221.786917 510 505 609 384 373 376
44.816576 1329704221.795069 508 504 607 384 370 374
44.816576 1329704221.803481 510 506 604 388 370 374
44.870311 1329704221.812003 511 507 604 389 374 374
44.870311 1329704221.820042 511 503 604 388 375 372
44.891473 1329704221.834205 513 501 603 385 376 371
44.891473 1329704221.836937 513 502 602 383 377 371
44.932709 1329704221.845429 513 503 604 380 379 370
44.932709 1329704221.853326 513 499 604 378 383 370
44.974160 1329704221.861975 514 498 604 378 385 371
44.974160 1329704221.869952 516 499 605 374 385 370
