imu_t vicon_t accel_x accel_y accel_z gyro_x gyro_y gyro_z
0.010574 1329703610.382270 519 499 608 371 381 363
0.010574 1329703610.547817 519 495 610 369 379 362
0.010574 1329703610.580920 518 497 610 365 378 366
0.010574 1329703610.589607 516 499 609 367 376 368
0.010574 1329703610.597834 517 500 608 371 375 371
0.010574 1329703610.605968 518 500 608 375 375 370
0.010574 1329703610.614385 517 498 608 375 377 370
0.010574 1329703610.622841 515 495 608 373 375 368
0.010574 1329703610.630843 514 496 607 372 372 368
0.010574 1329703610.639567 513 500 605 371 373 369
0.010574 1329703610.647916 514 501 605 371 376 368
0.010574 1329703610.656133 513 496 605 370 378 365
0.010574 1329703610.664551 510 495 605 370 374 366
0.010574 1329703610.672910 509 498 603 371 375 368
0.010574 1329703610.680852 508 502 601 376 377 368
0.010574 1329703610.689426 507 503 601 381 383 366
0.010574 1329703610.697900 506 501 602 387 390 365
0.010574 1329703610.706262 504 499 602 393 396 364
0.010574 1329703610.714687 504 499 603 397 400 366
0.010574 1329703610.722484 504 500 605 399 402 366
0.010574 1329703610.731052 503 500 608 399 402 365
0.010574 1329703610.739804 503 501 610 394 405 366
0.010574 1329703610.750880 508 499 614 387 404 365
0.010574 1329703610.756713 510 492 618 383 401 362
0.010574 1329703610.764729 511 487 618 381 391 364
0.010574 1329703610.773583 515 491 618 382 383 370
0.010574 1329703610.780862 515 498 619 382 381 370
0.010574 1329703610.790316 518 497 618 377 378 366
0.010574 1329703610.799150 521 491 618 377 374 364
0.010574 1329703610.813187 518 488 618 378 369 362
0.010574 1329703610.816263 516 486 614 379 360 364
0.010574 1329703610.822980 521 494 613 376 358 368
0.010574 1329703610.830954 520 500 614 365 359 365
0.010574 1329703610.839527 520 488 615 361 353 359
0.010574 1329703610.847748 520 479 612 366 344 362
0.010574 1329703610.856175 522 482 609 376 344 368
0.010574 1329703610.864502 523 489 605 381 351 375
0.010574 1329703610.872806 522 491 602 382 354 376
0.010574 1329703610.881004 524 487 601 389 357 376
0.010574 1329703610.889282 523 487 602 403 365 380
0.010574 1329703610.897488 528 486 607 411 369 379
0.010574 1329703610.906164 529 489 608 419 365 378
0.010574 1329703610.914329 526 491 606 430 358 377
0.010574 1329703610.922910 526 490 601 435 355 377
0.010574 1329703610.930964 527 490 597 445 359 381
0.010574 1329703610.939264 529 491 596 462 368 381
0.010574 1329703610.947395 532 487 593 497 375 382
0.010574 1329703610.958053 538 487 590 534 383 384
0.010574 1329703610.965051 542 484 587 563 397 383
0.010574 1329703610.972802 543 479 586 587 413 379
0.010574 1329703610.980902 539 471 583 602 419 375
0.010574 1329703610.989316 536 462 581 607 414 375
0.010574 1329703610.997455 537 452 577 604 402 377
0.046088 1329703611.008326 536 443 573 584 394 378
0.046088 1329703611.015137 537 439 574 549 391 374
0.046088 1329703611.022844 534 436 576 517 388 370
0.046088 1329703611.031807 507 502 606 375 376 371
0.087403 1329703611.039162 507 502 605 374 376 372
0.087403 1329703611.047302 508 502 605 374 376 370
0.121109 1329703611.056747 508 502 605 375 377 371
0.121109 1329703611.064279 508 502 605 373 376 371
0.163759 1329703611.072631 508 502 605 374 376 371
0.163759 1329703611.080994 508 502 605 375 375 371
0.207331 1329703611.088881 508 502 605 374 376 370
0.207331 1329703611.097459 508 502 605 374 377 369
0.246938 1329703611.105935 508 502 605 374 377 370
0.246938 1329703611.114188 508 502 605 374 376 370
0.283580 1329703611.122480 508 502 605 374 376 371
0.283580 1329703611.130849 508 502 605 375 375 371
0.321927 1329703611.138900 508 502 606 374 376 370
0.321927 1329703611.147391 507 502 605 375 376 370
0.362621 1329703611.155815 507 502 605 374 376 371
0.362621 1329703611.169011 508 502 605 375 376 370
0.404883 1329703611.172376 508 502 605 374 376 370
0.404883 1329703611.180796 508 502 605 374 377 369
0.445801 1329703611.189792 508 502 605 373 377 370
0.445801 1329703611.197351 508 502 605 375 376 371
0.488417 1329703611.205976 508 502 605 375 376 370
0.488417 1329703611.214197 508 502 606 374 375 370
0.521889 1329703611.222462 508 502 605 373 376 371
0.521889 1329703611.230952 508 502 605 375 376 370
0.562349 1329703611.239229 508 502 605 375 376 370
0.562349 1329703611.247040 508 502 605 375 377 370
0.603798 1329703611.255870 508 502 605 373 376 370
0.603798 1329703611.264129 508 502 605 375 376 370
0.646383 1329703611.272472 508 502 605 374 376 369
0.646383 1329703611.280861 508 502 605 375 375 370
0.687415 1329703611.289118 508 502 605 374 376 371
0.687415 1329703611.297290 508 502 605 375 376 370
0.720683 1329703611.305923 508 502 606 374 376 370
0.720683 1329703611.319335 508 502 605 374 376 370
0.762424 1329703611.322384 508 502 605 374 377 371
0.762424 1329703611.330743 508 502 606 374 376 370
0.803640 1329703611.339030 508 502 605 375 376 371
0.803640 1329703611.347090 508 502 605 374 376 370
0.845695 1329703611.355706 507 502 605 374 375 370
0.845695 1329703611.371772 508 502 605 374 376 370
0.887122 1329703611.374277 508 502 606 374 376 370
0.887122 1329703611.380566 508 502 605 373 377 371
0.923865 1329703611.389156 508 502 605 374 377 370
0.923865 1329703611.396865 508 502 605 373 376 370
0.962015 1329703611.405570 508 502 605 374 376 371
0.962015 1329703611.414101 508 502 605 374 376 371
1.014161 1329703611.422703 508 502 605 375 376 371
1.014161 1329703611.430535 508 502 605 374 376 370
1.045440 1329703611.438976 508 502 605 375 375 370
1.045440 1329703611.446805 508 502 605 374 376 370
1.086937 1329703611.455729 508 502 605 375 376 370
1.086937 1329703611.467300 507 502 605 375 376 371
1.130212 1329703611.472801 508 502 605 375 376 370
1.130212 1329703611.498019 508 502 605 374 376 370
1.161708 1329703611.505503 508 502 605 374 376 371
1.161708 1329703611.513340 508 502 605 374 375 371
1.206704 1329703611.522090 508 502 605 374 376 371
1.206704 1329703611.530293 508 502 606 375 376 370
1.245302 1329703611.538766 508 502 605 375 376 371
1.245302 1329703611.557586 508 502 605 374 376 370
1.286840 1329703611.563966 508 502 605 374 376 371
1.286840 1329703611.571620 508 502 605 374 377 370
1.328114 1329703611.580355 508 502 605 374 376 371
1.328114 1329703611.588878 508 502 605 374 375 370
1.361452 1329703611.608725 508 502 606 374 376 370
1.361452 1329703611.623323 507 502 605 374 375 370
1.402740 1329703611.630425 508 502 605 374 376 370
1.402740 1329703611.638604 508 502 605 374 376 371
1.454815 1329703611.646935 508 502 605 374 376 370
1.454815 1329703611.655461 508 502 605 374 377 371
1.486474 1329703611.663350 508 502 605 374 376 371
1.486474 1329703611.673700 508 502 605 374 377 371
1.528057 1329703611.680276 508 502 605 375 376 369
1.528057 1329703611.688357 508 502 605 374 377 370
1.561456 1329703611.696931 508 502 605 374 377 370
1.561456 1329703611.705216 508 502 605 375 376 370
1.602587 1329703611.713227 508 502 605 374 375 370
1.602587 1329703611.723969 508 502 605 374 376 371
1.644767 1329703611.738597 507 502 605 373 377 370
1.644767 1329703611.750174 508 502 605 375 376 371
1.686219 1329703611.756913 508 502 605 374 376 370
1.686219 1329703611.763748 508 502 605 374 376 370
1.726375 1329703611.771932 508 502 605 375 376 370
1.726375 1329703611.780601 508 502 605 374 375 370
1.760992 1329703611.788786 508 502 605 374 376 370
1.760992 1329703611.796462 507 502 605 374 375 371
1.802465 1329703611.805058 508 502 605 374 375 371
1.802465 1329703611.813822 508 502 605 374 377 371
1.844401 1329703611.821783 508 502 605 374 377 369
1.844401 1329703611.830279 508 502 605 374 376 370
1.886342 1329703611.838543 508 502 605 374 376 370
1.886342 1329703611.846653 508 502 605 374 376 370
1.934859 1329703611.855185 508 502 605 374 375 370
1.934859 1329703611.863611 508 502 605 374 377 370
1.960991 1329703611.871628 508 502 605 375 376 370
1.960991 1329703611.880262 508 502 605 374 375 370
2.002014 1329703611.888351 508 502 605 373 377 370
2.002014 1329703611.896556 508 502 605 375 375 370
2.044196 1329703611.904909 508 502 605 374 377 371
2.044196 1329703611.913265 507 502 605 374 376 371
2.082512 1329703611.921721 508 502 605 374 376 370
2.082512 1329703611.930222 508 502 605 374 376 370
2.127654 1329703611.938460 508 502 605 374 376 371
2.127654 1329703611.946229 508 502 605 374 376 370
2.160569 1329703611.954839 508 502 605 375 376 370
2.160569 1329703611.969611 507 502 605 374 376 370
2.202353 1329703611.973040 508 502 606 374 375 370
2.202353 1329703611.979961 508 502 605 375 376 369
2.244146 1329703611.998225 508 502 606 374 376 370
2.244146 1329703612.004830 507 502 605 374 376 370
2.285376 1329703612.013260 507 502 605 374 376 370
2.285376 1329703612.022014 508 502 606 374 376 370
2.327398 1329703612.029912 508 502 606 375 376 370
2.327398 1329703612.038301 508 502 605 373 376 370
2.370010 1329703612.048797 508 502 605 375 375 371
2.370010 1329703612.054628 508 502 605 373 375 371
2.401631 1329703612.062673 508 502 605 375 376 370
2.401631 1329703612.071537 508 502 605 375 375 370
2.443462 1329703612.079556 507 502 605 375 376 370
2.443462 1329703612.088014 506 502 605 373 376 370
2.484746 1329703612.096403 508 501 606 374 376 371
2.484746 1329703612.104910 510 502 606 375 377 371
2.534749 1329703612.112809 510 503 605 374 376 369
2.534749 1329703612.121131 507 503 605 374 375 370
2.567871 1329703612.129907 503 501 604 373 375 370
2.567871 1329703612.138084 504 501 606 375 375 371
2.601151 1329703612.146063 509 502 604 373 375 371
2.601151 1329703612.154773 513 503 606 374 377 371
2.648672 1329703612.162748 510 502 605 374 380 369
2.648672 1329703612.171071 505 501 605 375 375 370
2.684262 1329703612.179674 504 502 604 375 372 370
2.684262 1329703612.188156 506 502 605 374 373 371
2.726361 1329703612.196129 509 502 605 374 375 371
2.726361 1329703612.209603 510 502 605 374 376 370
2.760690 1329703612.213042 508 502 605 375 377 370
2.760690 1329703612.221219 506 502 605 375 378 370
2.801187 1329703612.229713 505 502 605 375 378 371
2.801187 1329703612.237810 506 502 604 375 380 370
2.844001 1329703612.245805 508 502 605 375 380 372
2.844001 1329703612.262189 510 502 606 374 377 371
2.884260 1329703612.264838 510 502 606 373 373 369
2.884260 1329703612.271021 507 502 605 375 375 369
2.926665 1329703612.279662 504 502 605 375 376 370
2.926665 1329703612.287974 505 502 605 374 376 370
2.970289 1329703612.295974 509 502 605 375 376 373
2.970289 1329703612.304455 510 502 605 374 378 370
3.000695 1329703612.313279 509 502 606 375 378 370
3.000695 1329703612.321302 507 502 605 374 372 370
3.043415 1329703612.329579 506 502 606 375 375 370
3.043415 1329703612.338045 506 502 605 374 375 371
3.094376 1329703612.346062 507 502 605 373 376 370
3.094376 1329703612.354585 508 502 605 374 376 371
3.126961 1329703612.366516 509 502 606 375 377 371
3.126961 1329703612.370886 508 502 605 375 379 370
3.177755 1329703612.379783 507 502 606 374 378 370
3.177755 1329703612.387852 507 502 605 375 374 370
3.200795 1329703612.395862 507 502 605 374 374 370
3.200795 1329703612.404408 508 502 605 374 375 370
3.244434 1329703612.413062 508 502 605 373 377 371
3.244434 1329703612.421158 508 502 604 374 378 370
3.283754 1329703612.429739 507 502 605 373 379 370
3.283754 1329703612.437605 507 502 605 375 375 370
3.325284 1329703612.445783 508 502 605 375 374 371
3.325284 1329703612.454656 508 502 605 375 376 370
3.367072 1329703612.462733 508 502 605 374 377 370
3.367072 1329703612.478290 508 502 605 375 378 371
3.408785 1329703612.481080 507 502 605 373 375 371
3.408785 1329703612.487544 507 502 606 374 376 370
3.455441 1329703612.495834 507 502 604 374 376 371
3.455441 1329703612.504236 508 502 605 373 377 370
3.483720 1329703612.512822 508 502 605 374 376 369
3.483720 1329703612.521653 508 502 605 374 375 369
3.525276 1329703612.529173 507 502 605 374 375 370
3.525276 1329703612.537762 507 502 605 375 378 370
3.564028 1329703612.545629 508 502 605 375 376 371
3.564028 1329703612.554127 508 502 605 374 377 371
3.599927 1329703612.562601 508 502 605 375 376 371
3.599927 1329703612.571007 507 502 605 374 376 371
3.641758 1329703612.579249 507 502 605 374 377 371
3.641758 1329703612.587618 508 502 605 374 376 370
3.683323 1329703612.595615 508 502 606 374 376 371
3.683323 1329703612.604277 508 502 605 375 377 370
3.725233 1329703612.613285 507 502 605 374 376 370
3.725233 1329703612.626024 508 502 605 374 376 370
3.769809 1329703612.640829 508 502 605 375 376 370
3.769809 1329703612.654638 507 502 605 374 376 370
3.799923 1329703612.662170 508 502 605 375 376 370
3.799923 1329703612.671025 508 502 605 374 376 372
3.841643 1329703612.679066 508 502 605 374 377 370
3.841643 1329703612.692035 507 502 605 375 376 371
3.891178 1329703612.695936 508 502 605 373 377 370
3.891178 1329703612.704047 507 502 605 375 376 370
3.925030 1329703612.712640 508 502 605 375 377 370
3.925030 1329703612.720941 508 502 605 373 375 372
3.966634 1329703612.730544 508 502 605 374 376 370
3.966634 1329703612.737655 508 502 605 375 376 370
4.008035 1329703612.745861 508 502 605 374 375 371
4.008035 1329703612.753925 507 502 605 374 376 370
4.049953 1329703612.762164 508 502 605 373 376 371
4.049953 1329703612.770576 508 502 605 375 376 370
4.083492 1329703612.778928 508 502 606 375 376 369
4.083492 1329703612.787643 508 502 605 373 376 370
4.124951 1329703612.795739 508 502 604 373 375 370
4.124951 1329703612.804127 508 502 605 374 376 370
4.166419 1329703612.812027 508 502 605 374 376 371
4.166419 1329703612.820793 508 502 605 375 377 370
4.208128 1329703612.828917 507 502 605 374 377 370
4.208128 1329703612.837452 508 502 606 374 376 371
4.241657 1329703612.845848 508 502 605 375 376 371
4.241657 1329703612.853987 508 502 605 374 375 369
4.283531 1329703612.862019 507 502 606 374 376 371
4.283531 1329703612.870856 507 502 605 375 377 370
4.324561 1329703612.890325 508 502 605 374 377 371
4.324561 1329703612.913363 508 502 606 374 376 371
4.361885 1329703612.925047 508 502 605 374 376 370
4.361885 1329703612.929831 507 502 605 374 376 371
4.402926 1329703612.936468 507 502 605 374 377 370
4.402926 1329703612.945242 508 502 605 374 376 371
4.441398 1329703612.953611 507 502 605 374 376 370
4.441398 1329703612.961819 508 502 605 374 375 370
4.483469 1329703612.970112 508 502 605 373 377 370
4.483469 1329703612.978441 508 502 605 374 376 371
4.525270 1329703612.986905 507 502 605 374 375 371
4.525270 1329703612.995010 507 501 605 374 377 370
4.566599 1329703613.003412 508 502 605 374 376 371
4.566599 1329703613.020463 508 502 605 374 377 371
4.611650 1329703613.028326 508 502 606 374 376 370
4.611650 1329703613.036136 508 502 605 374 376 369
4.641247 1329703613.044575 507 502 605 374 377 371
4.641247 1329703613.053366 507 502 605 375 376 371
4.688437 1329703613.061280 508 502 605 374 377 370
4.688437 1329703613.078146 508 502 605 375 375 370
4.724207 1329703613.091094 508 502 605 375 376 371
4.724207 1329703613.094404 508 502 605 375 376 370
4.766251 1329703613.102682 508 502 605 375 376 371
4.766251 1329703613.111430 507 502 606 375 376 370
4.807940 1329703613.119600 507 502 605 374 377 370
4.807940 1329703613.127973 508 502 605 374 377 369
4.841212 1329703613.136931 508 502 605 375 376 370
4.841212 1329703613.144579 508 502 605 375 375 371
4.882427 1329703613.152871 508 502 606 374 376 370
4.882427 1329703613.161636 507 502 605 374 377 370
4.924454 1329703613.169830 508 502 606 374 376 371
4.924454 1329703613.192065 508 502 605 374 376 370
4.966655 1329703613.212322 508 502 605 374 376 371
4.966655 1329703613.219559 508 502 605 375 376 370
5.008037 1329703613.227781 507 502 605 375 376 370
5.008037 1329703613.236597 507 502 605 375 376 370
5.041566 1329703613.244387 507 502 605 374 376 370
5.041566 1329703613.252900 508 502 605 374 376 370
5.082372 1329703613.261482 508 502 605 373 376 369
5.082372 1329703613.269823 508 502 605 374 377 370
5.124511 1329703613.277855 508 502 605 374 376 370
5.124511 1329703613.286363 508 502 605 375 376 371
5.166734 1329703613.294788 508 502 605 374 376 370
5.166734 1329703613.304173 508 502 605 374 375 370
5.208349 1329703613.311445 508 502 605 375 375 370
5.208349 1329703613.319798 508 502 605 374 374 370
5.241065 1329703613.327737 508 502 606 374 373 370
5.241065 1329703613.336398 507 502 605 373 374 370
5.282527 1329703613.344685 507 502 605 374 376 370
5.282527 1329703613.353176 506 502 605 375 376 371
5.324130 1329703613.361455 505 502 604 375 381 371
5.324130 1329703613.369966 509 502 607 375 383 371
5.365885 1329703613.377640 512 502 606 374 372 370
5.365885 1329703613.386829 510 503 605 375 375 369
5.407653 1329703613.394094 506 502 605 373 375 370
5.407653 1329703613.403228 504 501 605 373 370 370
5.440394 1329703613.412733 506 502 605 374 365 371
5.440394 1329703613.419922 509 502 604 374 370 370
5.482646 1329703613.427814 507 502 604 374 377 370
5.482646 1329703613.436589 507 502 605 375 383 370
5.523820 1329703613.444354 507 502 606 375 381 370
5.523820 1329703613.453372 507 503 605 374 376 371
5.565326 1329703613.461327 507 502 605 373 375 370
5.565326 1329703613.470105 508 500 605 375 377 371
5.607938 1329703613.477726 509 503 606 374 377 371
5.607938 1329703613.486680 508 503 604 374 380 370
5.640766 1329703613.494416 503 503 606 376 393 370
5.640766 1329703613.513702 507 500 603 374 407 373
5.688510 1329703613.521422 511 502 606 373 414 373
5.688510 1329703613.527712 511 505 605 374 409 374
5.723747 1329703613.537905 517 504 606 375 399 375
5.723747 1329703613.544170 519 504 606 374 391 375
5.765532 1329703613.553651 518 506 609 377 386 374
5.765532 1329703613.560950 519 507 615 383 381 371
5.801216 1329703613.570200 516 507 619 391 378 371
5.801216 1329703613.577613 515 505 621 399 380 368
5.840140 1329703613.586086 515 504 622 405 385 370
5.840140 1329703613.594091 514 503 623 406 387 369
5.883934 1329703613.602419 515 502 624 396 383 370
5.883934 1329703613.610691 515 501 624 380 382 370
5.927105 1329703613.619283 518 501 621 364 379 372
5.927105 1329703613.637790 520 502 621 346 375 375
5.965495 1329703613.639639 520 502 619 332 371 375
5.965495 1329703613.643982 518 503 618 322 363 375
6.011376 1329703613.651954 516 503 618 314 364 373
6.011376 1329703613.660767 520 504 617 318 363 373
6.040277 1329703613.669458 518 506 616 333 365 379
6.040277 1329703613.677601 515 507 613 351 370 384
6.081945 1329703613.685669 515 507 612 367 378 385
6.081945 1329703613.693967 516 506 612 390 384 384
6.124444 1329703613.702205 516 505 610 407 386 383
6.124444 1329703613.721165 510 506 609 413 393 385
6.160974 1329703613.727263 513 505 607 409 400 386
6.160974 1329703613.735534 516 505 605 403 404 380
6.211909 1329703613.744324 514 504 604 395 404 374
6.211909 1329703613.752521 514 503 604 383 407 367
6.240574 1329703613.760424 516 502 603 373 407 361
6.240574 1329703613.771114 519 501 604 371 404 358
6.282936 1329703613.782298 519 500 606 371 401 359
6.282936 1329703613.787878 518 501 607 371 396 367
6.323614 1329703613.794060 520 503 605 370 392 370
6.323614 1329703613.804021 519 503 606 371 390 366
6.365363 1329703613.810690 520 502 606 371 385 363
6.365363 1329703613.819015 518 501 603 373 379 363
6.407621 1329703613.827288 518 501 604 369 377 368
6.407621 1329703613.835461 521 501 603 372 374 370
6.449323 1329703613.844223 519 501 601 373 370 371
6.449323 1329703613.852520 517 501 598 366 365 368
6.481713 1329703613.860652 517 501 597 358 365 366
6.481713 1329703613.868780 519 500 597 355 366 368
6.521245 1329703613.879394 519 501 596 352 366 371
6.521245 1329703613.885198 518 502 595 350 368 374
6.572759 1329703613.895918 521 504 594 349 370 376
6.572759 1329703613.902262 521 506 595 351 373 376
6.619628 1329703613.910606 523 506 596 360 374 373
6.619628 1329703613.920807 525 506 596 367 371 371
6.649107 1329703613.927164 525 507 598 376 369 371
6.649107 1329703613.935179 523 505 597 385 369 370
6.681577 1329703613.943836 522 506 595 387 367 369
6.681577 1329703613.952286 520 506 596 382 367 369
6.722815 1329703613.960576 521 506 597 380 369 369
6.722815 1329703613.968920 519 506 597 376 368 367
6.765983 1329703613.998805 516 506 597 370 367 367
6.765983 1329703614.012217 519 505 597 370 368 364
6.804399 1329703614.019166 517 506 597 376 367 365
6.804399 1329703614.027249 516 506 596 379 370 364
6.847841 1329703614.035676 513 505 596 382 372 363
6.847841 1329703614.043675 515 505 598 385 372 364
6.881295 1329703614.052083 515 505 598 389 373 365
6.881295 1329703614.060282 514 504 598 387 375 362
6.924782 1329703614.068726 514 503 598 384 376 365
6.924782 1329703614.077446 513 502 598 382 376 366
6.964655 1329703614.085537 514 504 599 378 377 367
6.964655 1329703614.094136 516 504 601 375 378 366
7.006048 1329703614.107392 517 504 602 374 376 367
7.006048 1329703614.110193 515 505 604 371 374 367
7.047615 1329703614.118513 517 505 606 370 376 367
7.047615 1329703614.127231 519 505 607 371 377 366
7.080886 1329703614.135474 517 505 608 378 374 366
7.080886 1329703614.143459 518 506 609 380 373 366
7.123356 1329703614.153137 517 505 609 381 372 363
7.123356 1329703614.160399 518 505 608 380 373 364
7.164645 1329703614.168492 518 504 608 380 372 364
7.164645 1329703614.177116 517 504 607 379 372 363
7.205681 1329703614.185188 517 503 605 377 372 364
7.205681 1329703614.193637 517 502 604 376 371 364
7.247468 1329703614.202062 515 500 603 375 372 364
7.247468 1329703614.210246 513 500 602 375 371 365
7.284889 1329703614.218539 513 500 602 375 372 368
7.284889 1329703614.226761 514 501 602 378 376 370
7.320245 1329703614.235200 515 501 602 384 379 368
7.320245 1329703614.243744 514 499 602 387 380 367
7.370521 1329703614.252035 515 499 603 387 380 369
7.370521 1329703614.260569 514 500 602 386 379 371
7.405772 1329703614.268674 515 500 602 383 380 370
7.405772 1329703614.276742 516 501 602 377 381 369
7.447375 1329703614.285115 515 501 603 373 382 371
7.447375 1329703614.293591 517 502 605 374 385 370
7.480949 1329703614.313269 517 502 606 374 384 369
7.480949 1329703614.320344 516 501 608 374 382 370
7.522421 1329703614.326634 516 501 607 373 380 370
7.522421 1329703614.335134 517 501 607 372 379 372
7.570446 1329703614.343343 517 502 607 372 378 371
7.570446 1329703614.351890 516 501 607 369 377 372
7.601837 1329703614.360581 515 501 607 369 376 373
7.601837 1329703614.368511 514 503 604 369 374 372
7.647267 1329703614.376703 512 506 603 361 375 371
7.647267 1329703614.385040 510 510 605 365 381 366
7.680745 1329703614.393314 509 509 607 374 383 363
7.680745 1329703614.401724 507 505 607 380 383 364
7.732768 1329703614.422262 507 504 607 384 380 364
7.732768 1329703614.434583 507 502 608 381 381 366
7.763818 1329703614.436570 505 500 609 377 380 367
7.763818 1329703614.443278 503 499 611 375 378 368
7.806366 1329703614.451449 503 499 611 373 376 370
7.806366 1329703614.460281 504 502 612 373 379 371
7.847068 1329703614.468489 503 503 612 370 377 370
7.847068 1329703614.476759 504 502 611 373 373 369
7.880442 1329703614.485124 504 502 609 378 368 369
7.880442 1329703614.493173 508 503 608 376 368 367
7.921942 1329703614.501355 506 503 608 367 372 366
7.921942 1329703614.510123 507 502 609 360 373 367
7.966325 1329703614.518578 507 503 609 358 373 368
7.966325 1329703614.526619 510 505 611 362 373 371
8.005190 1329703614.535248 512 508 612 366 372 370
8.005190 1329703614.542970 510 507 611 368 367 369
8.047156 1329703614.551493 513 505 609 374 365 369
8.047156 1329703614.560297 514 505 610 380 372 369
8.088407 1329703614.568396 514 505 611 386 375 366
8.088407 1329703614.593424 513 504 609 395 373 368
8.121765 1329703614.615782 514 507 607 402 370 370
8.121765 1329703614.626850 514 506 606 406 371 367
8.176536 1329703614.640555 515 505 605 414 367 366
8.176536 1329703614.653650 518 506 606 428 372 366
8.204957 1329703614.660030 521 500 606 441 387 360
8.204957 1329703614.668317 521 493 607 458 392 358
8.246540 1329703614.676742 524 494 605 476 386 363
8.246540 1329703614.684541 525 492 603 496 381 363
8.288028 1329703614.693074 531 486 602 510 387 361
8.288028 1329703614.701595 533 479 602 520 389 363
8.321407 1329703614.709866 532 475 602 526 385 367
8.321407 1329703614.718274 533 470 598 537 382 370
8.367688 1329703614.729701 533 467 596 544 381 374
8.367688 1329703614.735257 533 464 594 551 379 375
8.404073 1329703614.742879 534 460 592 559 375 376
8.404073 1329703614.751569 532 453 586 568 373 377
8.447451 1329703614.759811 531 448 583 569 374 382
8.447451 1329703614.768006 529 443 579 559 373 384
8.487930 1329703614.776785 529 442 577 533 373 381
8.487930 1329703614.785079 528 440 575 498 374 372
8.520551 1329703614.792992 526 433 574 467 372 364
8.520551 1329703614.801207 523 430 572 440 365 363
8.562360 1329703614.809676 527 430 571 418 365 363
8.562360 1329703614.818014 523 430 570 397 364 363
8.603819 1329703614.826969 525 428 568 377 363 364
8.603819 1329703614.834670 524 424 569 357 364 363
8.650442 1329703614.842866 523 423 569 334 368 363
8.650442 1329703614.851278 521 425 571 307 371 365
8.688112 1329703614.859682 520 428 574 282 371 366
8.688112 1329703614.867987 521 435 576 259 370 366
8.728530 1329703614.876285 519 440 578 239 369 367
8.728530 1329703614.884619 520 440 582 223 367 364
8.762707 1329703614.903355 520 441 585 214 366 365
8.762707 1329703614.905223 519 444 587 210 366 366
8.822256 1329703614.909328 521 448 589 202 365 369
8.822256 1329703614.918014 524 453 591 199 364 371
8.845435 1329703614.927164 526 459 594 199 364 369
8.845435 1329703614.946400 524 465 595 201 362 369
8.887138 1329703614.951377 524 469 597 208 362 372
8.887138 1329703614.960000 524 474 599 222 366 374
8.928496 1329703614.968180 523 480 599 238 367 376
8.928496 1329703614.976444 523 486 598 252 363 377
8.962234 1329703614.984780 525 490 598 269 368 378
8.962234 1329703614.993495 527 495 599 290 376 378
9.003830 1329703615.001592 521 499 599 311 379 377
9.003830 1329703615.009952 522 499 601 329 383 375
9.045444 1329703615.018325 524 500 604 345 387 376
9.045444 1329703615.026898 525 500 605 360 385 377
9.091773 1329703615.034861 524 497 606 371 382 377
9.091773 1329703615.043357 524 496 606 372 385 373
9.120516 1329703615.051613 524 500 608 367 386 374
9.120516 1329703615.059823 524 501 609 364 383 373
9.162396 1329703615.068715 523 497 609 365 377 373
9.162396 1329703615.076593 524 499 608 367 375 371
9.203871 1329703615.084871 523 505 608 364 380 370
9.203871 1329703615.093322 521 502 608 359 376 368
9.246184 1329703615.101521 519 495 608 361 370 371
9.246184 1329703615.110078 515 494 607 364 370 371
9.298260 1329703615.118189 514 505 606 365 376 373
9.298260 1329703615.126534 514 506 606 363 379 372
9.320494 1329703615.134976 512 500 604 363 377 372
9.320494 1329703615.143283 510 495 604 368 376 373
9.362176 1329703615.155134 508 501 604 369 381 373
9.362176 1329703615.161882 507 509 604 367 383 371
9.403726 1329703615.174303 509 506 605 369 381 369
9.403726 1329703615.176546 508 500 604 372 379 370
9.445568 1329703615.184692 506 498 605 379 377 372
9.445568 1329703615.193313 508 505 605 385 378 372
9.486980 1329703615.218508 506 509 606 383 381 369
9.486980 1329703615.231755 508 503 607 381 379 367
9.520141 1329703615.235103 509 500 608 378 379 366
9.520141 1329703615.243138 512 498 608 377 378 365
9.568270 1329703615.251511 510 498 608 373 375 364
9.568270 1329703615.259995 507 497 608 371 372 364
9.603615 1329703615.267736 508 499 609 369 367 370
9.603615 1329703615.281596 511 503 608 368 369 371
9.645551 1329703615.286579 510 504 607 368 369 369
9.645551 1329703615.298116 507 500 605 371 369 367
9.681755 1329703615.300824 506 498 605 372 367 366
9.681755 1329703615.309723 506 500 605 374 366 366
9.730242 1329703615.318251 508 502 605 376 368 366
9.730242 1329703615.326180 510 503 604 377 369 365
9.762140 1329703615.334942 512 504 604 376 371 365
9.762140 1329703615.342584 513 503 605 376 374 361
9.803579 1329703615.351385 513 502 606 374 375 358
9.803579 1329703615.359885 512 502 607 371 377 358
9.845107 1329703615.370095 512 504 607 371 380 359
9.845107 1329703615.376166 513 508 607 373 381 359
9.886690 1329703615.384676 514 507 607 374 378 361
9.886690 1329703615.392597 514 503 606 371 377 362
9.928588 1329703615.401171 514 502 606 373 380 366
9.928588 1329703615.409882 512 506 608 374 383 371
9.961806 1329703615.418302 511 507 609 377 382 371
9.961806 1329703615.425903 512 506 607 379 379 371
10.003095 1329703615.434866 513 505 606 381 374 372
10.003095 1329703615.442842 516 504 606 382 371 373
10.045087 1329703615.451070 515 506 605 383 373 372
10.045087 1329703615.459966 515 505 604 379 375 368
10.087045 1329703615.467807 513 504 606 376 368 367
10.087045 1329703615.475866 509 503 608 374 362 369
10.120361 1329703615.484740 510 502 606 374 359 373
10.120361 1329703615.492832 513 501 604 369 358 379
10.161956 1329703615.501118 511 500 602 366 359 380
10.161956 1329703615.510076 509 499 602 362 361 380
10.203267 1329703615.517704 509 497 601 357 368 382
10.203267 1329703615.525997 507 496 601 352 377 386
10.245228 1329703615.536592 508 497 602 350 385 386
10.245228 1329703615.542491 510 499 601 353 384 386
10.294431 1329703615.550649 510 501 601 358 379 382
10.294431 1329703615.559623 510 502 600 361 378 380
10.328398 1329703615.567879 512 500 600 365 380 379
10.328398 1329703615.575918 511 502 602 372 387 376
10.361451 1329703615.585072 512 503 604 379 393 376
10.361451 1329703615.592511 512 503 606 383 397 374
10.406222 1329703615.603054 511 502 607 385 395 372
10.406222 1329703615.609618 510 502 607 389 390 373
10.445033 1329703615.618000 511 504 608 391 387 372
10.445033 1329703615.625891 509 502 609 389 387 369
10.497217 1329703615.634427 507 499 610 383 382 367
10.497217 1329703615.642422 507 499 610 379 374 368
10.519939 1329703615.650554 507 500 610 374 369 368
10.519939 1329703615.659531 508 499 609 371 366 368
10.561256 1329703615.667934 510 499 608 367 365 367
10.561256 1329703615.676169 511 502 607 366 366 367
10.602963 1329703615.684475 511 503 607 366 367 366
10.602963 1329703615.692815 511 504 606 369 371 368
10.639909 1329703615.701277 512 504 605 370 370 366
10.639909 1329703615.710158 511 505 604 373 371 366
10.686341 1329703615.717995 512 505 603 373 374 366
10.686341 1329703615.726097 512 505 603 373 377 367
10.727747 1329703615.734701 512 505 603 374 380 367
10.727747 1329703615.742786 512 503 602 377 379 367
10.761244 1329703615.751778 511 502 602 378 377 367
10.761244 1329703615.759718 511 503 603 379 377 369
10.813390 1329703615.767897 512 504 603 377 378 370
10.813390 1329703615.775966 513 505 603 373 380 371
10.844367 1329703615.784470 513 506 604 370 384 370
10.844367 1329703615.793170 512 507 605 370 381 370
10.886522 1329703615.803592 513 507 605 370 379 371
10.886522 1329703615.809345 515 508 605 373 380 370
10.920018 1329703615.817341 515 506 606 374 381 369
10.920018 1329703615.825969 514 506 607 375 380 368
10.962126 1329703615.834388 514 506 607 373 379 369
10.962126 1329703615.842743 514 506 607 374 376 369
11.004870 1329703615.850962 514 505 607 375 376 369
11.004870 1329703615.859622 513 504 606 373 376 369
11.044048 1329703615.867576 513 505 606 372 377 369
11.044048 1329703615.875963 514 505 606 370 375 370
11.085766 1329703615.884387 514 505 606 372 376 370
11.085766 1329703615.892804 512 506 606 372 377 369
11.127516 1329703615.900959 511 506 605 372 378 369
11.127516 1329703615.909316 509 505 606 372 377 369
11.160796 1329703615.917180 508 504 605 375 378 369
11.160796 1329703615.926164 506 504 605 377 380 371
11.202847 1329703615.934221 504 502 604 378 383 371
11.202847 1329703615.942668 503 501 605 377 384 371
11.244858 1329703615.951043 502 503 605 377 387 372
11.244858 1329703615.959256 501 503 607 377 387 373
11.291616 1329703615.967382 501 502 608 378 387 375
11.291616 1329703615.976017 501 505 608 379 386 376
11.328417 1329703615.983852 501 506 608 381 381 375
11.328417 1329703615.993134 503 505 607 384 377 375
11.360731 1329703616.000935 504 506 608 385 379 373
11.360731 1329703616.009426 504 505 609 384 382 371
11.402431 1329703616.017195 502 503 609 379 380 370
11.402431 1329703616.026111 503 504 608 380 378 370
11.445046 1329703616.034035 506 506 610 385 380 372
11.445046 1329703616.042182 506 502 610 390 383 370
11.495838 1329703616.052891 506 503 610 391 383 371
11.495838 1329703616.067272 507 504 610 394 380 368
11.526926 1329703616.079009 506 498 609 397 377 368
11.526926 1329703616.085680 511 502 609 408 376 371
11.568590 1329703616.092291 514 508 610 413 378 368
11.568590 1329703616.108794 517 502 609 417 376 365
11.601577 1329703616.111346 517 494 607 423 371 363
11.601577 1329703616.118661 521 494 606 436 370 366
11.643067 1329703616.127538 527 497 606 453 374 368
11.643067 1329703616.134157 531 494 604 467 379 367
11.685053 1329703616.142297 531 490 601 479 381 365
11.685053 1329703616.151366 533 486 599 493 380 364
11.726145 1329703616.159055 536 481 598 510 378 364
11.726145 1329703616.166977 535 476 597 523 381 364
11.768207 1329703616.178651 535 472 595 526 383 364
11.768207 1329703616.184218 534 469 593 524 381 365
11.800838 1329703616.192112 533 464 591 519 380 362
11.800838 1329703616.200728 533 456 588 517 378 363
11.849434 1329703616.209081 532 453 584 517 378 365
11.849434 1329703616.217680 532 450 582 518 379 366
11.884093 1329703616.231985 531 445 581 522 384 368
11.884093 1329703616.234798 529 441 580 526 386 371
11.926773 1329703616.242253 528 436 577 523 384 374
11.926773 1329703616.250678 531 436 575 511 384 375
11.968324 1329703616.258946 528 434 574 491 383 371
11.968324 1329703616.267171 527 430 574 470 380 369
12.000745 1329703616.280817 526 429 572 447 377 365
12.000745 1329703616.295639 523 427 571 430 374 360
12.042532 1329703616.300455 519 424 569 419 371 359
12.042532 1329703616.308979 520 421 568 410 370 361
12.084108 1329703616.317418 520 419 565 403 372 362
12.084108 1329703616.325540 519 416 563 397 374 364
12.129174 1329703616.333578 519 415 562 392 377 368
12.129174 1329703616.344597 521 416 562 386 379 369
12.167249 1329703616.351073 519 416 562 382 381 369
12.167249 1329703616.358838 518 416 562 379 382 369
12.200573 1329703616.367045 519 418 563 371 383 369
12.200573 1329703616.375487 520 417 565 364 385 369
12.242518 1329703616.383646 522 415 566 357 384 369
12.242518 1329703616.392195 521 417 568 348 384 372
12.283823 1329703616.400058 522 419 570 334 384 372
12.283823 1329703616.409112 523 419 571 320 382 370
12.325478 1329703616.417087 523 421 572 306 380 370
12.325478 1329703616.427417 522 423 574 293 379 372
12.375720 1329703616.433575 523 426 575 279 374 372
12.375720 1329703616.444337 522 429 576 270 371 372
12.400494 1329703616.458429 522 432 576 261 367 371
12.400494 1329703616.470608 523 433 577 255 368 373
12.442720 1329703616.485420 522 432 577 250 368 378
12.442720 1329703616.499547 521 433 578 247 368 382
12.487074 1329703616.501716 521 445 581 243 369 386
12.487074 1329703616.508968 524 453 584 247 372 383
12.525745 1329703616.517147 521 456 588 249 374 378
12.525745 1329703616.531833 519 457 593 248 372 374
12.564052 1329703616.554846 517 460 596 248 370 370
12.564052 1329703616.568749 517 463 599 245 368 367
12.601144 1329703616.571231 515 466 601 243 367 364
12.601144 1329703616.575563 515 470 603 245 367 363
12.642152 1329703616.583776 515 473 604 250 366 362
12.642152 1329703616.592164 514 478 603 253 368 363
12.683956 1329703616.606515 514 482 606 255 371 365
12.683956 1329703616.609226 516 482 606 264 372 366
12.725476 1329703616.616896 518 486 606 273 371 371
12.725476 1329703616.625417 520 491 605 285 371 374
12.768277 1329703616.633810 521 494 605 298 370 377
12.768277 1329703616.642044 523 500 607 310 373 380
12.800394 1329703616.650620 528 502 606 321 373 379
12.800394 1329703616.658907 528 502 606 333 373 377
12.841927 1329703616.667894 530 502 607 344 375 373
12.841927 1329703616.677429 528 504 607 351 375 373
12.883451 1329703616.683642 529 505 607 358 376 375
12.883451 1329703616.691833 528 504 608 364 373 373
12.925348 1329703616.704449 531 504 606 368 369 368
12.925348 1329703616.708679 532 505 605 371 371 367
12.967443 1329703616.717020 530 506 606 377 373 368
12.967443 1329703616.725471 529 507 606 382 373 368
13.000339 1329703616.734056 529 505 605 384 373 369
13.000339 1329703616.742423 526 504 605 382 374 369
13.042871 1329703616.755411 525 500 604 378 374 369
13.042871 1329703616.758886 526 498 604 379 374 373
13.084835 1329703616.767113 525 502 603 382 371 374
13.084835 1329703616.775610 521 505 602 379 370 374
13.125298 1329703616.784034 520 505 602 375 371 374
13.125298 1329703616.794296 520 504 601 374 371 375
13.167141 1329703616.800460 520 505 602 376 372 374
13.167141 1329703616.812233 521 503 602 382 372 371
13.200961 1329703616.817486 517 503 601 383 371 367
13.200961 1329703616.826260 513 504 601 376 371 370
13.253653 1329703616.833825 513 499 600 376 373 372
13.253653 1329703616.842270 511 493 598 376 376 372
13.283626 1329703616.850701 510 499 599 372 375 377
13.283626 1329703616.859897 511 502 600 369 379 379
13.325074 1329703616.867080 510 500 601 365 383 377
13.325074 1329703616.875809 506 498 601 367 384 376
13.367106 1329703616.883808 512 500 601 371 384 378
13.367106 1329703616.891934 512 505 603 377 389 372
13.401246 1329703616.902545 510 506 604 384 390 370
13.401246 1329703616.908851 514 504 606 389 386 368
13.451534 1329703616.916917 509 498 607 396 380 365
13.451534 1329703616.925627 511 496 606 395 383 371
13.484489 1329703616.933672 512 499 607 384 388 372
13.484489 1329703616.942081 508 499 609 379 388 375
13.534863 1329703616.951049 507 499 610 375 384 375
13.534863 1329703616.958832 509 500 610 373 380 375
13.568278 1329703616.966738 513 501 609 368 378 375
13.568278 1329703616.975594 513 499 608 366 378 373
13.601007 1329703616.983423 511 498 607 367 376 372
13.601007 1329703616.992744 509 501 607 373 371 372
13.652898 1329703617.012914 510 503 606 376 371 373
13.652898 1329703617.017178 511 501 605 377 375 373
13.683832 1329703617.025183 511 498 606 377 379 370
13.683832 1329703617.033623 510 495 606 376 381 368
13.725609 1329703617.041974 510 496 607 374 382 369
13.725609 1329703617.049789 510 498 606 378 379 372
13.767520 1329703617.064696 512 500 607 378 380 373
13.767520 1329703617.078497 514 499 607 373 385 372
13.813698 1329703617.102082 514 497 608 365 385 370
13.813698 1329703617.116225 515 499 608 364 382 370
13.841901 1329703617.118919 517 499 608 369 379 370
13.841901 1329703617.124792 517 501 608 371 377 367
13.883482 1329703617.133535 518 500 608 371 375 368
13.883482 1329703617.142703 517 502 607 372 375 368
13.940567 1329703617.163102 518 502 607 372 375 368
13.940567 1329703617.166617 519 500 607 372 375 365
13.966874 1329703617.175165 518 498 607 371 374 366
13.966874 1329703617.183278 518 499 606 372 375 368
14.003568 1329703617.192599 519 502 606 370 377 370
14.003568 1329703617.201341 519 502 606 368 377 366
14.042248 1329703617.208325 519 500 605 366 375 366
14.042248 1329703617.217225 519 499 605 367 373 368
14.083824 1329703617.225026 519 500 605 371 373 370
14.083824 1329703617.232955 518 503 605 372 373 368
14.125242 1329703617.241522 518 503 604 371 374 368
14.125242 1329703617.250052 518 501 603 372 375 368
14.166900 1329703617.258431 518 500 603 373 376 369
14.166900 1329703617.266360 516 501 603 373 378 368
14.200408 1329703617.275096 514 500 604 370 379 369
14.200408 1329703617.282825 513 500 605 369 381 369
14.243606 1329703617.291522 513 501 604 369 380 369
14.243606 1329703617.299891 511 500 605 367 382 366
14.283187 1329703617.309415 507 498 606 365 383 363
14.283187 1329703617.316564 504 499 605 360 384 363
14.324745 1329703617.325475 501 501 607 355 387 363
14.324745 1329703617.334876 500 501 608 353 392 363
14.366937 1329703617.347873 499 506 612 354 392 362
14.366937 1329703617.350414 497 511 613 355 387 359
14.400224 1329703617.362548 495 509 615 357 378 358
14.400224 1329703617.367435 497 508 617 359 377 359
14.446982 1329703617.374990 496 511 617 359 375 360
14.446982 1329703617.382783 496 506 616 362 369 362
14.489731 1329703617.391410 498 508 616 370 365 365
14.489731 1329703617.399647 501 512 618 373 372 362
14.525827 1329703617.408253 498 510 619 378 375 360
14.525827 1329703617.416420 498 512 618 384 366 359
14.566277 1329703617.424836 505 516 617 393 360 359
14.566277 1329703617.433016 509 514 616 396 361 352
14.607464 1329703617.441448 508 512 613 393 356 346
14.607464 1329703617.450022 514 507 609 398 348 347
14.641489 1329703617.458163 515 511 607 412 349 347
14.641489 1329703617.468219 520 516 603 419 355 343
14.685895 1329703617.474586 531 516 598 423 353 338
14.685895 1329703617.482982 528 501 595 446 355 337
14.723260 1329703617.491321 533 500 593 465 364 338
14.723260 1329703617.500102 536 501 591 480 377 347
14.765362 1329703617.508093 543 499 591 508 390 354
14.765362 1329703617.516309 547 491 592 554 406 356
14.802690 1329703617.524605 549 483 591 604 419 365
14.802690 1329703617.532743 548 477 590 646 417 376
14.848182 1329703617.541494 551 469 589 676 410 384
14.848182 1329703617.549385 555 459 587 690 406 387
14.881531 1329703617.558093 552 447 586 678 404 383
14.881531 1329703617.566401 549 439 585 647 396 378
14.923036 1329703617.574841 544 436 584 612 381 376
14.923036 1329703617.583456 543 436 583 578 368 373
14.965470 1329703617.591121 536 435 578 532 359 368
14.965470 1329703617.600988 532 429 573 480 351 364
15.006489 1329703617.607954 528 421 570 437 347 358
15.006489 1329703617.618357 523 414 566 398 341 356
15.047878 1329703617.624343 522 411 562 360 337 361
15.047878 1329703617.633476 519 413 562 323 337 370
15.081419 1329703617.641301 518 416 559 289 342 373
15.081419 1329703617.649318 518 419 558 256 351 371
15.122796 1329703617.658061 518 419 560 227 358 371
15.122796 1329703617.666852 517 421 565 208 368 369
15.164870 1329703617.674445 519 423 567 193 375 369
15.164870 1329703617.682652 519 429 571 182 377 370
15.206504 1329703617.691236 521 440 574 173 379 368
15.206504 1329703617.699983 522 446 577 169 385 364
15.248142 1329703617.707984 523 443 581 172 388 364
15.248142 1329703617.716012 526 442 585 184 385 369
15.290228 1329703617.724374 527 454 589 198 383 374
15.290228 1329703617.732581 528 467 592 209 388 379
15.333253 1329703617.741567 529 470 596 222 390 382
15.333253 1329703617.749179 528 473 599 236 385 384
15.364795 1329703617.757895 529 482 602 249 386 387
15.364795 1329703617.776225 528 488 603 263 383 391
15.407272 1329703617.782663 527 487 604 280 372 392
15.407272 1329703617.790933 525 487 605 297 368 393
15.447954 1329703617.799496 524 493 604 309 373 396
15.447954 1329703617.807651 525 501 605 317 374 395
15.481523 1329703617.828365 524 496 606 326 371 392
15.481523 1329703617.851497 519 494 606 332 367 388
15.523275 1329703617.863619 515 504 605 334 368 388
15.523275 1329703617.868423 513 513 605 335 366 385
15.564416 1329703617.874306 514 512 606 343 368 383
15.564416 1329703617.882527 518 504 606 350 371 380
15.614162 1329703617.891259 513 506 607 356 374 382
15.614162 1329703617.899229 510 513 606 360 373 385
15.646162 1329703617.913992 515 515 605 367 375 383
15.646162 1329703617.916758 519 511 605 371 376 378
15.684133 1329703617.924353 515 507 605 377 380 377
15.684133 1329703617.932833 515 506 606 380 383 376
15.722852 1329703617.940933 517 509 606 379 387 375
15.722852 1329703617.949236 516 511 607 378 383 374
15.764595 1329703617.957416 514 507 607 380 377 375
15.764595 1329703617.965982 517 503 607 380 380 372
15.806335 1329703617.974441 519 504 607 378 385 367
15.806335 1329703617.983163 518 507 608 371 381 366
15.840206 1329703617.990852 515 502 607 370 374 369
15.840206 1329703617.998965 516 499 606 373 372 373
15.882242 1329703618.007602 519 503 604 374 374 374
15.882242 1329703618.021624 517 507 604 370 376 370
15.924215 1329703618.024356 515 504 604 368 375 368
15.924215 1329703618.032379 515 502 603 370 377 368
15.964862 1329703618.040847 518 500 603 375 379 368
15.964862 1329703618.049080 516 503 604 380 383 368
16.006655 1329703618.057956 512 502 604 379 385 368
16.006655 1329703618.065824 511 498 605 379 384 371
16.050751 1329703618.074328 515 498 604 383 383 373
16.050751 1329703618.082427 517 501 604 384 385 373
16.081559 1329703618.090553 515 499 604 382 385 374
16.081559 1329703618.101198 516 500 604 377 383 374
16.123128 1329703618.113914 517 502 605 375 383 373
16.123128 1329703618.116791 518 502 604 376 383 371
16.165520 1329703618.128818 518 500 605 374 384 371
16.165520 1329703618.145250 516 500 606 369 384 370
16.206462 1329703618.166297 516 501 606 370 382 372
16.206462 1329703618.174477 514 502 605 375 380 374
16.247940 1329703618.182170 516 500 603 380 380 375
16.247940 1329703618.190726 517 498 604 380 382 376
16.281504 1329703618.199280 516 500 603 380 382 376
16.281504 1329703618.215897 520 505 604 380 384 377
16.322832 1329703618.224124 522 503 606 381 385 376
16.322832 1329703618.232555 521 501 609 382 388 374
16.364341 1329703618.240619 520 501 610 381 384 372
16.364341 1329703618.248760 520 503 610 380 378 372
16.406851 1329703618.257512 519 502 609 376 372 370
16.406851 1329703618.276237 521 502 608 369 372 368
16.440087 1329703618.282560 522 502 608 365 374 367
16.440087 1329703618.290669 519 501 608 363 372 365
16.482031 1329703618.298748 517 500 606 364 371 364
16.482031 1329703618.307294 516 500 606 367 371 366
16.531778 1329703618.317664 518 502 605 369 373 368
16.531778 1329703618.349725 517 502 606 373 375 367
16.564486 1329703618.361524 519 501 605 377 377 369
16.564486 1329703618.367787 520 502 606 378 379 370
16.604517 1329703618.374082 521 502 608 379 379 369
16.604517 1329703618.382058 519 500 608 379 373 368
16.642941 1329703618.390592 520 501 607 379 371 370
16.642941 1329703618.398610 520 502 606 374 372 371
16.681307 1329703618.407126 521 501 606 369 374 370
16.681307 1329703618.415536 521 502 606 368 372 370
16.724537 1329703618.423919 521 502 606 372 372 369
16.724537 1329703618.432966 520 501 605 373 374 368
16.764408 1329703618.440704 519 501 604 373 375 369
16.764408 1329703618.448682 519 503 604 372 374 369
16.805002 1329703618.461593 520 501 604 376 374 369
16.805002 1329703618.465408 521 501 604 376 375 368
16.847584 1329703618.474621 521 501 605 375 376 369
16.847584 1329703618.481798 520 502 605 375 378 369
16.883529 1329703618.490272 521 502 605 375 376 370
16.883529 1329703618.509737 522 501 605 374 375 369
16.922685 1329703618.515609 521 500 604 373 377 370
16.922685 1329703618.523272 521 502 604 372 376 371
16.964071 1329703618.532034 520 505 604 373 377 369
16.964071 1329703618.539934 519 503 603 373 377 368
17.005970 1329703618.548661 519 499 604 375 378 367
17.005970 1329703618.556766 519 500 605 376 380 366
17.050143 1329703618.565304 518 501 606 377 382 367
17.050143 1329703618.573539 517 500 607 378 381 367
17.080491 1329703618.581961 514 499 608 375 379 366
17.080491 1329703618.590598 509 497 609 372 378 368
17.122568 1329703618.597946 505 496 610 371 377 369
17.122568 1329703618.607531 503 496 610 370 376 370
17.164643 1329703618.615388 499 499 610 367 376 370
17.164643 1329703618.623332 493 502 611 366 377 370
17.202096 1329703618.631835 488 503 612 372 375 371
17.202096 1329703618.639845 487 503 613 383 373 371
17.246869 1329703618.648095 489 501 613 382 375 368
17.246869 1329703618.658732 488 500 613 369 377 366
17.280521 1329703618.665255 490 497 615 358 379 366
17.280521 1329703618.673325 491 497 616 355 380 365
17.321873 1329703618.682422 493 501 616 349 379 364
17.321873 1329703618.689934 496 508 613 345 372 363
17.373634 1329703618.698332 497 506 610 351 361 361
17.373634 1329703618.720010 511 495 608 362 359 358
17.404973 1329703618.733855 517 507 608 375 368 362
17.404973 1329703618.740123 518 521 607 395 372 359
17.441148 1329703618.748418 519 509 603 417 366 356
17.441148 1329703618.757346 524 500 602 449 363 363
17.489027 1329703618.765098 534 505 604 496 365 375
17.489027 1329703618.773282 540 511 602 544 361 386
17.522111 1329703618.782823 548 510 599 584 357 389
17.522111 1329703618.790041 558 507 599 626 366 387
17.562458 1329703618.798313 557 502 596 659 380 382
17.562458 1329703618.806556 558 486 591 678 385 375
17.603848 1329703618.816027 558 465 588 687 387 368
17.603848 1329703618.823302 554 442 583 683 391 362
17.645153 1329703618.831447 552 431 578 663 389 365
17.645153 1329703618.839837 546 434 577 622 385 368
17.686831 1329703618.850344 544 435 576 572 378 365
17.686831 1329703618.856390 542 429 577 531 367 359
17.720464 1329703618.864835 538 426 574 498 353 360
17.720464 1329703618.873388 535 425 571 466 343 360
17.762102 1329703618.911019 532 420 565 433 337 359
17.762102 1329703618.922971 529 415 561 389 336 362
17.803811 1329703618.931951 524 412 558 341 340 359
17.803811 1329703618.939514 522 408 556 292 343 363
17.844976 1329703618.947559 521 412 558 251 348 368
17.844976 1329703618.955949 523 420 562 214 355 369
17.886831 1329703618.964265 521 423 565 185 366 366
17.886831 1329703618.972569 522 424 569 167 374 365
17.920157 1329703618.980691 525 430 572 158 373 364
17.920157 1329703618.990939 532 433 574 158 370 366
17.961893 1329703618.997482 534 431 577 163 371 371
17.961893 1329703619.005690 527 438 581 173 367 380
18.006213 1329703619.014046 524 460 586 185 351 383
18.006213 1329703619.023384 524 466 591 207 338 384
18.045788 1329703619.030803 521 462 593 238 338 390
18.045788 1329703619.039039 511 470 592 263 345 396
18.086901 1329703619.047333 515 480 592 281 351 395
18.086901 1329703619.055839 515 480 595 303 359 388
18.122895 1329703619.063900 513 478 596 326 374 390
18.122895 1329703619.077604 510 479 595 342 383 397
18.168177 1329703619.080619 506 487 598 350 391 396
18.168177 1329703619.089094 507 488 600 351 399 390
18.203772 1329703619.099204 508 485 602 352 401 385
18.203772 1329703619.105778 514 482 605 352 400 385
18.245238 1329703619.115506 516 485 608 350 403 385
18.245238 1329703619.135601 513 493 609 345 399 380
18.287116 1329703619.138717 513 495 608 336 392 374
18.287116 1329703619.147271 513 493 609 332 388 373
18.320493 1329703619.155664 514 491 611 334 387 375
18.320493 1329703619.163898 516 494 609 340 384 375
18.361904 1329703619.172353 516 495 607 347 379 377
18.361904 1329703619.180644 513 496 607 347 379 374
18.403591 1329703619.193910 514 494 607 352 380 376
18.403591 1329703619.197100 516 493 607 360 380 375
18.456752 1329703619.205502 512 494 606 362 377 374
18.456752 1329703619.213752 513 497 605 360 376 373
18.487230 1329703619.222113 514 494 604 357 378 371
18.487230 1329703619.231548 512 495 604 360 382 374
18.520534 1329703619.245167 509 498 605 362 385 376
18.520534 1329703619.247000 511 497 604 363 388 378
18.562256 1329703619.255352 515 495 603 364 387 377
18.562256 1329703619.263733 515 493 603 363 388 375
18.611078 1329703619.272005 516 497 603 366 386 377
18.611078 1329703619.280466 515 502 604 367 384 375
18.645782 1329703619.288838 518 501 605 370 383 375
18.645782 1329703619.297071 516 498 604 370 383 372
18.687245 1329703619.306151 515 496 603 373 380 372
18.687245 1329703619.313616 516 498 604 371 383 370
18.720644 1329703619.321952 516 497 604 370 388 370
18.720644 1329703619.330581 513 498 604 371 386 371
18.762030 1329703619.338927 512 496 604 367 381 375
18.762030 1329703619.365688 518 497 604 364 380 374
18.803778 1329703619.376695 519 500 605 366 383 369
18.803778 1329703619.380574 518 500 606 371 385 366
18.845150 1329703619.388890 515 500 605 375 386 365
18.845150 1329703619.397353 514 495 606 376 387 370
18.885223 1329703619.405663 514 492 607 372 387 372
18.885223 1329703619.413762 515 497 608 370 386 375
18.921655 1329703619.421831 519 501 608 370 385 373
18.921655 1329703619.430590 519 499 609 369 385 370
18.962379 1329703619.439892 517 497 609 364 383 370
18.962379 1329703619.447338 517 499 609 359 381 371
19.005660 1329703619.455758 517 500 609 358 380 369
19.005660 1329703619.463859 518 499 607 362 375 368
19.043473 1329703619.471970 519 501 607 364 370 368
19.043473 1329703619.480615 520 499 607 366 367 367
19.087930 1329703619.489984 516 498 609 366 363 369
19.087930 1329703619.497366 514 499 609 368 356 372
19.120492 1329703619.505734 516 502 609 372 354 372
19.120492 1329703619.513969 518 503 608 375 355 369
19.162071 1329703619.521796 516 503 608 374 361 365
19.162071 1329703619.530436 515 503 607 374 364 364
19.203858 1329703619.539007 513 507 606 376 367 362
19.203858 1329703619.547316 514 504 606 374 372 362
19.245472 1329703619.555546 513 497 607 373 377 362
19.245472 1329703619.563793 513 498 608 374 377 365
19.287157 1329703619.572016 512 502 607 375 376 367
19.287157 1329703619.580762 513 505 605 378 373 368
19.320349 1329703619.588911 515 504 604 377 373 368
19.320349 1329703619.607702 515 502 605 376 374 368
19.361754 1329703619.610056 514 501 605 377 373 368
19.361754 1329703619.635159 515 499 605 377 371 370
19.403546 1329703619.638987 515 500 604 376 374 371
19.403546 1329703619.647225 516 503 605 375 375 370
19.446064 1329703619.655713 517 502 605 374 376 369
19.446064 1329703619.663973 518 499 604 373 377 370
19.487213 1329703619.672230 518 499 605 371 378 368
19.487213 1329703619.681422 517 500 605 370 378 367
19.519854 1329703619.688903 516 501 605 375 375 370
19.519854 1329703619.698109 516 502 604 375 376 371
19.570742 1329703619.705865 517 500 605 374 377 371
19.570742 1329703619.714043 516 501 606 372 380 370
19.604054 1329703619.722345 516 502 606 372 377 371
19.604054 1329703619.730677 516 502 606 374 374 372
19.639795 1329703619.739024 517 501 605 373 375 371
19.639795 1329703619.747355 517 501 604 371 377 370
19.688162 1329703619.755663 517 502 606 369 378 370
19.688162 1329703619.763964 517 503 606 372 376 371
19.720197 1329703619.772459 518 501 605 375 376 372
19.720197 1329703619.780940 518 501 605 375 376 371
19.762988 1329703619.789566 518 502 605 373 377 372
19.762988 1329703619.797434 518 503 605 372 377 370
19.804052 1329703619.805555 518 502 605 370 377 369
19.804052 1329703619.814233 518 501 604 370 378 369
19.844801 1329703619.822359 517 501 604 370 378 371
19.844801 1329703619.841733 517 502 605 372 377 370
19.885883 1329703619.844706 517 504 604 373 377 372
19.885883 1329703619.858246 517 503 604 372 380 370
19.920450 1329703619.863945 518 503 604 369 381 369
19.920450 1329703619.872283 517 505 605 370 380 368
19.961275 1329703619.880734 515 503 605 371 378 368
19.961275 1329703619.901233 515 502 605 375 379 370
20.003037 1329703619.905492 517 503 606 377 382 370
20.003037 1329703619.913769 517 502 606 375 381 371
20.044194 1329703619.922332 517 502 606 373 378 373
20.044194 1329703619.930413 518 503 605 373 378 372
20.086515 1329703619.939021 518 501 605 373 379 370
20.086515 1329703619.947171 516 500 606 372 381 371
20.121874 1329703619.956245 514 500 606 372 378 372
20.121874 1329703619.963835 510 499 606 372 380 372
20.161014 1329703619.972083 508 496 607 372 381 373
20.161014 1329703619.980315 505 498 607 370 382 373
20.202913 1329703619.989024 502 500 608 372 383 374
20.202913 1329703619.999479 500 500 609 371 385 373
20.243850 1329703620.005315 498 498 612 368 386 371
20.243850 1329703620.013840 497 503 614 363 389 369
20.286087 1329703620.022265 494 504 615 363 389 366
20.286087 1329703620.030460 491 505 616 365 388 364
20.332842 1329703620.038774 494 506 618 365 389 363
20.332842 1329703620.048896 493 503 620 364 385 359
20.366554 1329703620.055442 493 503 620 363 378 360
20.366554 1329703620.063485 494 506 619 362 370 361
20.402364 1329703620.072237 499 513 618 360 371 357
20.402364 1329703620.080233 505 514 615 353 374 349
20.443955 1329703620.088379 504 513 611 350 370 344
20.443955 1329703620.099113 510 507 609 346 369 341
20.485166 1329703620.111759 510 504 608 355 379 343
20.485166 1329703620.125467 510 512 607 368 378 348
20.526378 1329703620.132384 513 521 607 380 372 351
20.526378 1329703620.138692 520 520 607 395 369 351
20.568322 1329703620.147216 524 518 602 408 369 352
20.568322 1329703620.155856 528 517 600 419 363 356
20.601997 1329703620.163785 534 520 596 453 353 366
20.601997 1329703620.172315 543 530 595 486 357 371
20.642808 1329703620.180820 542 532 593 513 366 370
20.642808 1329703620.189010 553 521 590 550 369 370
20.692493 1329703620.197417 559 506 589 605 370 365
20.692493 1329703620.205630 555 491 585 660 380 365
20.734298 1329703620.213890 555 483 582 696 394 372
20.734298 1329703620.225178 552 472 577 715 404 373
20.767565 1329703620.230757 550 463 572 716 405 365
20.767565 1329703620.239073 552 443 570 706 409 359
20.807599 1329703620.247304 547 424 565 688 415 361
20.807599 1329703620.255661 545 418 563 648 416 369
20.842348 1329703620.273719 542 418 566 592 414 373
20.842348 1329703620.280603 537 421 570 535 407 370
20.884195 1329703620.288893 531 419 571 482 391 363
20.884195 1329703620.297310 532 415 569 444 371 358
20.925606 1329703620.305496 528 412 565 404 355 358
20.925606 1329703620.313959 530 407 562 359 344 357
20.967450 1329703620.322064 530 408 559 308 339 356
20.967450 1329703620.330439 528 411 558 259 337 351
21.015992 1329703620.338593 528 410 559 217 339 350
21.015992 1329703620.347108 530 411 561 184 344 354
21.042237 1329703620.355038 528 415 562 161 348 356
21.042237 1329703620.363802 527 418 562 141 351 359
21.084201 1329703620.371959 531 420 565 121 353 362
21.084201 1329703620.388577 533 425 572 107 366 358
21.133702 1329703620.396995 531 435 578 99 377 353
21.133702 1329703620.405298 533 441 583 106 375 355
21.164434 1329703620.413661 531 449 585 123 369 364
21.164434 1329703620.421874 532 463 590 141 369 373
21.201076 1329703620.430131 532 476 593 162 375 372
21.201076 1329703620.449284 534 481 596 188 372 374
21.249589 1329703620.455410 533 478 600 223 370 381
21.249589 1329703620.463525 533 483 600 256 368 391
21.284200 1329703620.472068 535 498 599 280 363 398
21.284200 1329703620.480479 533 511 601 297 362 399
21.325506 1329703620.488255 533 509 602 312 362 392
21.325506 1329703620.496703 534 504 604 326 364 394
21.360752 1329703620.505303 535 512 603 336 367 396
21.360752 1329703620.513573 537 517 604 342 369 400
21.401081 1329703620.521466 533 515 604 354 366 398
21.401081 1329703620.530365 531 512 605 365 359 400
21.442578 1329703620.538530 533 514 603 368 358 398
21.442578 1329703620.546572 531 520 600 366 355 393
21.484436 1329703620.566539 523 520 598 360 351 391
21.484436 1329703620.571929 520 517 600 357 354 391
21.527232 1329703620.580137 520 515 600 361 357 391
21.527232 1329703620.588557 520 516 597 366 361 385
21.560402 1329703620.596767 515 517 600 367 363 378
21.560402 1329703620.605183 510 512 604 375 369 373
21.601185 1329703620.620322 511 508 606 388 372 372
21.601185 1329703620.623148 514 510 606 399 377 372
21.642159 1329703620.630430 509 514 607 397 381 372
21.642159 1329703620.638623 506 511 606 390 383 375
21.689803 1329703620.646712 507 509 606 383 380 378
21.689803 1329703620.656280 510 511 607 383 382 377
21.738912 1329703620.663780 510 513 608 385 384 373
21.738912 1329703620.671879 510 508 608 388 382 370
21.767583 1329703620.680380 510 507 606 387 376 367
21.767583 1329703620.688564 510 507 607 384 377 363
21.800967 1329703620.696517 506 507 607 386 377 361
21.800967 1329703620.705364 506 507 608 388 375 362
21.842724 1329703620.713904 507 506 608 389 376 364
21.842724 1329703620.728550 510 505 607 389 378 367
21.893294 1329703620.731711 509 506 607 381 378 366
21.893294 1329703620.739023 508 502 607 374 383 362
21.926404 1329703620.746700 506 500 608 372 384 363
21.926404 1329703620.755446 507 502 608 370 382 367
21.967761 1329703620.763632 510 502 606 367 379 369
21.967761 1329703620.771837 512 502 605 366 380 371
22.001330 1329703620.780446 514 505 606 367 381 368
22.001330 1329703620.788687 515 506 608 368 381 365
22.045036 1329703620.796730 512 502 607 368 377 361
22.045036 1329703620.805105 510 501 606 369 376 363
22.084349 1329703620.814080 512 503 608 370 379 363
22.084349 1329703620.821736 511 502 609 371 384 363
22.125827 1329703620.837824 509 501 608 369 381 363
22.125827 1329703620.840885 511 503 606 370 375 367
22.167556 1329703620.846651 514 505 606 373 374 371
22.167556 1329703620.855015 517 502 606 375 376 371
22.201456 1329703620.863571 517 505 607 376 380 372
22.201456 1329703620.871847 517 505 607 378 376 371
22.242310 1329703620.883444 517 506 607 378 373 371
22.242310 1329703620.888614 518 507 606 374 375 370
22.284191 1329703620.896430 519 505 607 370 376 368
22.284191 1329703620.904877 519 505 607 367 378 367
22.326420 1329703620.913875 517 505 606 368 373 367
22.326420 1329703620.921591 518 505 607 373 371 368
22.367921 1329703620.929706 518 506 606 378 371 369
22.367921 1329703620.949706 519 506 606 380 372 370
22.402534 1329703620.954741 518 505 606 376 371 369
22.402534 1329703620.963198 519 505 606 375 372 369
22.442399 1329703620.973827 518 504 606 376 372 370
22.442399 1329703620.979939 518 504 605 376 371 369
22.493309 1329703620.988478 518 504 604 375 373 369
22.493309 1329703621.015966 518 507 604 374 373 370
22.525596 1329703621.040590 518 505 604 375 373 369
22.525596 1329703621.054443 518 504 604 374 375 370
22.567264 1329703621.057424 517 504 604 375 375 370
22.567264 1329703621.063416 518 504 605 378 373 372
22.608539 1329703621.071823 518 506 606 375 375 372
22.608539 1329703621.080272 517 504 605 375 374 371
22.642318 1329703621.087940 518 503 604 376 374 371
22.642318 1329703621.096744 517 504 605 377 375 372
22.683969 1329703621.104672 518 504 605 377 377 370
22.683969 1329703621.114122 517 504 606 377 376 370
22.725180 1329703621.121525 516 503 606 376 374 370
22.725180 1329703621.132334 516 503 605 377 375 373
22.766808 1329703621.138113 517 504 605 378 375 372
22.766808 1329703621.146436 517 504 605 378 377 373
22.800242 1329703621.154931 516 503 606 377 374 373
22.800242 1329703621.163117 517 504 606 378 374 372
22.842073 1329703621.171560 518 503 606 375 375 372
22.842073 1329703621.183298 517 504 605 375 374 373
22.884140 1329703621.188140 516 504 606 377 375 374
22.884140 1329703621.196320 516 503 604 378 375 372
22.925062 1329703621.204660 516 503 603 378 375 372
22.925062 1329703621.213414 516 503 604 377 374 373
22.966836 1329703621.222279 516 504 604 377 374 373
22.966836 1329703621.229824 515 503 603 376 377 372
23.000101 1329703621.238217 516 502 603 377 380 372
23.000101 1329703621.246681 515 503 604 375 379 373
23.048169 1329703621.255517 514 504 603 376 379 373
23.048169 1329703621.262919 514 503 603 380 379 372
23.084021 1329703621.271197 514 503 604 382 383 372
23.084021 1329703621.280091 513 503 605 381 383 373
23.125167 1329703621.288907 512 501 605 382 384 371
23.125167 1329703621.296414 513 502 605 382 385 372
23.173810 1329703621.304707 512 503 606 381 385 371
23.173810 1329703621.313115 511 503 607 380 384 370
23.199816 1329703621.321187 510 500 608 381 382 370
23.199816 1329703621.333233 508 499 608 380 382 372
23.241191 1329703621.356536 508 499 608 379 382 371
23.241191 1329703621.363247 508 498 609 376 383 370
23.284387 1329703621.371235 506 500 610 374 382 372
23.284387 1329703621.379739 504 503 610 374 379 373
23.324769 1329703621.387758 506 502 610 371 378 369
23.324769 1329703621.396497 506 497 611 370 382 367
23.365989 1329703621.404373 505 498 612 374 378 368
23.365989 1329703621.412977 504 501 612 377 376 371
23.407865 1329703621.421542 503 500 609 377 375 368
23.407865 1329703621.429945 503 499 608 376 377 368
23.443395 1329703621.437884 500 494 608 378 375 369
23.443395 1329703621.460392 500 495 607 385 377 372
23.482589 1329703621.463158 501 502 606 389 384 369
23.482589 1329703621.471354 501 508 607 384 392 358
23.524065 1329703621.479485 501 511 609 372 391 352
23.524065 1329703621.487961 504 500 608 363 384 346
23.566675 1329703621.496224 509 492 607 367 382 350
23.566675 1329703621.504773 514 499 608 370 388 351
23.607576 1329703621.512542 519 498 609 374 388 353
23.607576 1329703621.521157 516 502 607 382 379 359
23.640255 1329703621.529566 525 503 606 394 375 364
23.640255 1329703621.537570 530 503 606 407 379 369
23.681896 1329703621.548258 538 505 606 417 382 374
23.681896 1329703621.555112 540 500 606 432 379 377
23.723329 1329703621.562572 542 497 604 458 379 383
23.723329 1329703621.571257 545 498 603 493 384 392
23.764843 1329703621.579557 545 499 599 534 386 398
23.764843 1329703621.587505 554 488 596 576 386 402
23.810303 1329703621.603919 556 481 593 619 390 403
23.810303 1329703621.618866 557 475 590 656 394 400
23.847728 1329703621.621591 558 464 585 681 395 396
23.847728 1329703621.629346 561 451 579 691 399 394
23.884014 1329703621.637597 553 440 574 678 409 392
23.884014 1329703621.645840 543 429 573 649 403 386
23.924097 1329703621.654065 542 427 574 609 394 383
23.924097 1329703621.670944 539 426 576 565 388 374
23.964309 1329703621.673679 537 427 576 523 377 370
23.964309 1329703621.679554 528 427 576 486 363 367
24.005863 1329703621.687565 533 426 571 450 350 360
24.005863 1329703621.696020 529 423 567 410 342 357
24.047609 1329703621.704231 526 415 564 369 336 356
24.047609 1329703621.712927 525 411 560 331 329 356
24.081272 1329703621.720717 530 408 559 292 324 359
24.081272 1329703621.729104 526 411 559 251 327 360
24.122867 1329703621.737750 527 416 559 215 333 360
24.122867 1329703621.746262 527 418 562 191 338 359
24.165923 1329703621.754060 526 421 563 175 342 360
24.165923 1329703621.762664 522 425 566 160 345 361
24.205901 1329703621.771067 527 430 570 154 346 362
24.205901 1329703621.779374 531 434 575 154 353 363
24.247719 1329703621.788301 528 438 580 160 364 365
24.247719 1329703621.795960 526 446 580 169 366 367
24.297618 1329703621.804106 528 455 584 175 366 369
24.297618 1329703621.812934 533 460 590 184 369 373
24.322818 1329703621.835118 531 468 594 202 372 379
24.322818 1329703621.838342 532 474 595 222 371 381
24.364155 1329703621.845854 531 480 594 238 367 379
24.364155 1329703621.854323 531 483 594 250 365 382
24.406456 1329703621.862787 528 487 596 266 371 386
24.406456 1329703621.871874 528 488 599 284 370 387
24.458589 1329703621.879231 527 493 600 297 370 390
24.458589 1329703621.887808 527 497 600 303 372 393
24.481118 1329703621.895907 523 501 602 310 370 395
24.481118 1329703621.904111 521 502 604 323 370 397
24.536172 1329703621.912381 524 503 604 336 371 393
24.536172 1329703621.923964 523 508 604 342 376 391
24.564414 1329703621.928996 520 513 604 348 375 391
24.564414 1329703621.937537 514 511 605 353 375 388
24.606435 1329703621.945838 516 506 604 362 372 384
24.606435 1329703621.954217 518 508 603 377 378 380
24.640569 1329703621.962496 515 513 602 388 386 378
24.640569 1329703621.977019 508 508 603 392 387 378
24.681046 1329703621.979968 502 503 606 398 381 379
24.681046 1329703621.987651 506 506 607 402 383 379
24.722963 1329703621.995506 515 506 606 400 392 375
24.722963 1329703622.004008 519 502 608 392 400 372
24.764414 1329703622.011888 516 504 610 383 399 369
24.764414 1329703622.022998 511 510 612 381 392 369
24.806041 1329703622.039317 512 512 611 378 386 369
24.806041 1329703622.045623 514 508 610 382 383 370
24.840006 1329703622.053699 516 505 610 383 382 370
24.840006 1329703622.062165 517 500 610 382 382 373
24.881080 1329703622.070408 517 503 608 378 384 374
24.881080 1329703622.079002 519 508 606 374 384 371
24.923000 1329703622.089045 518 508 607 374 381 368
24.923000 1329703622.095447 517 503 607 375 382 367
24.964495 1329703622.103566 516 498 608 379 384 370
24.964495 1329703622.112078 516 501 606 377 387 372
25.006096 1329703622.120210 517 503 605 376 386 371
25.006096 1329703622.128537 519 503 605 372 384 370
25.047802 1329703622.136886 518 502 607 369 384 370
25.047802 1329703622.145024 516 500 607 366 383 370
25.081056 1329703622.153239 515 499 608 363 381 369
25.081056 1329703622.163388 518 503 607 364 377 369
25.122705 1329703622.169712 521 508 606 366 376 367
25.122705 1329703622.178618 519 507 607 365 376 363
25.164632 1329703622.186574 517 502 606 367 371 362
25.164632 1329703622.194836 517 499 606 368 367 363
25.224299 1329703622.203120 517 502 604 369 370 363
25.224299 1329703622.211492 520 502 605 371 373 364
25.247627 1329703622.219466 518 502 606 371 376 363
25.247627 1329703622.228503 514 498 607 371 374 364
25.281344 1329703622.236430 510 498 606 368 369 366
25.281344 1329703622.244744 513 500 606 365 367 369
25.322878 1329703622.252958 516 501 606 362 367 369
25.322878 1329703622.261285 517 503 606 363 367 368
25.364840 1329703622.269655 518 505 606 366 369 365
25.364840 1329703622.278397 519 503 604 368 372 362
25.406286 1329703622.285850 520 502 606 370 374 362
25.406286 1329703622.294582 520 503 608 373 376 361
25.443345 1329703622.302926 517 504 608 378 374 363
25.443345 1329703622.311632 517 502 606 381 371 364
25.481168 1329703622.319584 518 503 606 381 372 367
25.481168 1329703622.327893 518 504 606 378 375 367
25.522487 1329703622.335912 518 503 606 375 375 366
25.522487 1329703622.344291 517 500 606 376 372 368
25.564106 1329703622.353743 517 499 604 377 370 369
25.564106 1329703622.360868 518 502 603 376 372 370
25.606436 1329703622.369052 518 502 604 375 375 369
25.606436 1329703622.378977 516 502 603 373 377 370
25.650224 1329703622.392769 517 501 602 374 376 371
25.650224 1329703622.406453 518 502 602 375 378 373
25.689710 1329703622.412809 520 503 604 377 380 373
25.689710 1329703622.419084 520 503 604 378 379 372
25.722268 1329703622.427586 518 502 604 379 378 371
25.722268 1329703622.436061 517 500 604 375 379 371
25.764124 1329703622.444252 516 502 604 374 378 374
25.764124 1329703622.452839 514 502 605 374 380 375
25.805603 1329703622.461534 513 500 606 375 381 377
25.805603 1329703622.470233 512 499 606 377 381 377
25.847264 1329703622.477586 511 502 607 379 379 378
25.847264 1329703622.485991 510 502 608 382 377 378
25.886871 1329703622.494163 509 501 609 383 377 377
25.886871 1329703622.502717 509 502 611 383 378 376
25.922542 1329703622.511754 506 502 612 383 376 375
25.922542 1329703622.519407 503 499 614 382 371 377
25.966585 1329703622.527461 503 497 615 381 369 380
25.966585 1329703622.536146 505 498 617 380 370 383
26.005342 1329703622.544243 503 500 618 378 369 381
26.005342 1329703622.552574 502 499 618 373 363 381
26.046754 1329703622.560968 503 497 616 372 358 380
26.046754 1329703622.569051 505 499 617 373 359 382
26.080781 1329703622.577784 504 501 617 374 354 381
26.080781 1329703622.585993 501 501 615 378 347 379
26.121855 1329703622.594008 504 498 611 378 347 378
26.121855 1329703622.604536 506 493 611 377 354 374
26.163417 1329703622.610779 502 496 612 381 355 375
26.163417 1329703622.619133 499 505 610 385 352 378
26.205248 1329703622.627550 503 506 606 389 353 379
26.205248 1329703622.636045 509 496 604 389 358 374
26.246333 1329703622.644127 513 496 606 387 365 372
26.246333 1329703622.661644 510 495 607 388 365 370
26.281071 1329703622.672616 507 494 604 390 363 372
26.281071 1329703622.677536 508 494 600 393 359 377
26.320702 1329703622.685967 516 500 599 391 360 382
26.320702 1329703622.694241 522 496 599 395 363 383
26.362466 1329703622.702617 522 493 597 413 364 384
26.362466 1329703622.710669 521 492 595 436 361 387
26.403671 1329703622.719055 525 498 592 458 362 391
26.403671 1329703622.727624 527 504 591 480 368 388
26.441164 1329703622.735846 532 502 590 501 374 386
26.441164 1329703622.743971 534 493 589 530 383 380
26.491272 1329703622.752462 535 485 588 561 388 373
26.491272 1329703622.760765 533 476 587 585 393 368
26.520233 1329703622.773985 532 470 586 603 389 366
26.520233 1329703622.777097 534 463 586 617 388 364
26.562973 1329703622.786070 535 454 584 619 390 362
26.562973 1329703622.794193 534 444 581 610 391 360
26.603278 1329703622.802507 532 435 581 593 385 358
26.603278 1329703622.811887 530 431 579 573 379 357
26.646293 1329703622.818937 523 424 577 551 372 355
26.646293 1329703622.827176 520 419 574 525 366 354
26.681910 1329703622.835975 519 415 572 500 361 355
26.681910 1329703622.844025 516 413 570 472 359 355
26.720026 1329703622.852558 513 407 567 438 359 360
26.720026 1329703622.860714 510 405 566 397 364 365
26.761740 1329703622.868995 508 405 566 355 367 368
26.761740 1329703622.877140 508 406 567 310 372 369
26.803130 1329703622.885862 509 408 567 266 374 372
26.803130 1329703622.894116 509 414 569 229 375 372
26.845830 1329703622.902460 511 419 572 197 378 370
26.845830 1329703622.919191 512 423 576 170 380 368
26.895673 1329703622.921311 513 428 580 152 378 367
26.895673 1329703622.935354 518 430 583 140 372 366
26.928598 1329703622.937875 521 433 585 132 367 367
26.928598 1329703622.943969 524 439 587 127 365 369
26.979136 1329703622.952079 524 448 589 126 361 372
26.979136 1329703622.960337 524 461 594 129 361 371
27.003573 1329703622.986046 524 471 598 141 358 366
27.003573 1329703622.993877 520 477 600 162 352 365
27.044101 1329703623.002049 519 478 599 187 342 367
27.044101 1329703623.010349 517 482 597 213 343 371
27.086667 1329703623.030419 516 492 594 239 343 372
27.086667 1329703623.035997 509 500 593 265 344 376
27.120205 1329703623.046337 506 501 592 296 346 379
27.120205 1329703623.052189 507 505 590 326 353 384
27.161789 1329703623.060572 508 508 591 352 367 387
27.161789 1329703623.069177 504 510 593 376 382 389
27.200128 1329703623.077301 500 511 594 393 388 389
27.200128 1329703623.085129 504 510 596 405 394 388
27.247082 1329703623.093936 511 509 599 411 401 388
27.247082 1329703623.107513 514 508 604 413 406 388
27.286435 1329703623.110557 513 504 607 411 403 388
27.286435 1329703623.119155 513 504 609 403 398 388
27.320272 1329703623.127274 518 507 610 394 392 384
27.320272 1329703623.135475 519 509 612 386 386 380
27.361632 1329703623.144589 516 505 611 380 376 379
27.361632 1329703623.155941 514 502 607 376 368 378
27.410788 1329703623.161252 514 506 606 371 369 375
27.410788 1329703623.169115 510 509 605 369 371 371
27.444306 1329703623.177450 504 508 605 371 370 371
27.444306 1329703623.185450 505 504 604 372 373 371
27.497209 1329703623.193859 508 502 603 372 380 366
27.497209 1329703623.202304 509 500 603 375 385 366
27.528379 1329703623.210627 502 498 605 380 386 368
27.528379 1329703623.219235 499 498 605 383 385 373
27.564329 1329703623.227434 505 500 604 384 385 379
27.564329 1329703623.235447 511 503 606 382 387 378
27.608963 1329703623.243907 508 502 608 380 383 374
27.608963 1329703623.252310 507 497 608 380 380 371
27.644985 1329703623.260787 508 496 608 376 380 372
27.644985 1329703623.268929 507 499 608 374 376 375
27.686765 1329703623.277173 508 502 607 374 370 376
27.686765 1329703623.285510 506 500 604 375 370 374
27.727617 1329703623.294002 506 500 603 369 374 371
27.727617 1329703623.302299 506 500 603 367 376 368
27.762702 1329703623.311748 508 498 603 371 378 367
27.762702 1329703623.319009 505 496 602 378 378 365
27.803513 1329703623.327146 502 497 602 382 378 366
27.803513 1329703623.336006 496 499 602 379 380 368
27.845272 1329703623.343867 501 498 601 375 382 367
27.845272 1329703623.352415 503 497 603 374 388 368
27.886599 1329703623.370251 505 499 606 378 390 368
27.886599 1329703623.377246 505 500 606 383 389 363
27.928132 1329703623.385362 506 498 604 389 385 361
27.928132 1329703623.393719 507 496 605 391 385 359
27.969467 1329703623.402012 506 494 606 386 385 359
27.969467 1329703623.411085 507 496 608 379 384 360
28.003531 1329703623.418741 508 496 609 379 381 361
28.003531 1329703623.426963 510 496 609 380 380 360
28.045304 1329703623.435162 507 495 608 380 381 361
28.045304 1329703623.443685 505 492 606 376 380 361
28.083522 1329703623.452048 505 492 605 374 381 367
28.083522 1329703623.460521 509 494 607 379 386 372
28.120497 1329703623.468781 512 498 607 384 391 374
28.120497 1329703623.476831 511 497 607 382 391 371
28.161822 1329703623.485346 512 493 606 378 385 367
28.161822 1329703623.493725 513 491 605 377 382 369
28.230723 1329703623.502073 514 492 606 372 383 368
28.230723 1329703623.510869 515 493 607 365 384 369
28.255256 1329703623.518910 512 496 607 367 386 369
28.255256 1329703623.527150 511 495 608 369 383 368
28.292848 1329703623.535354 511 495 607 369 380 368
28.292848 1329703623.543812 513 494 606 368 380 372
28.322331 1329703623.552118 514 495 606 369 381 374
28.322331 1329703623.560618 517 498 607 370 384 373
28.361593 1329703623.568693 517 497 607 373 384 371
28.361593 1329703623.577216 516 496 609 377 381 368
28.403362 1329703623.586302 516 496 608 379 378 367
28.403362 1329703623.593463 516 496 608 380 375 369
28.444605 1329703623.602346 517 497 608 379 376 369
28.444605 1329703623.610729 518 496 608 375 376 367
28.486411 1329703623.618766 515 495 608 373 376 368
28.486411 1329703623.627353 515 494 608 369 372 369
28.533845 1329703623.635850 515 495 607 369 370 371
28.533845 1329703623.643870 516 496 606 368 371 371
28.567182 1329703623.652156 516 496 607 367 373 369
28.567182 1329703623.660799 515 497 607 365 371 369
28.602846 1329703623.668848 515 496 606 367 370 370
28.602846 1329703623.682911 515 496 604 368 370 367
28.640364 1329703623.685843 514 496 605 370 371 369
28.640364 1329703623.693752 511 496 604 371 370 369
28.695440 1329703623.702187 510 495 604 372 370 371
28.695440 1329703623.710642 509 496 604 375 373 373
28.727473 1329703623.719183 507 496 606 374 376 373
28.727473 1329703623.727349 504 496 607 374 377 372
28.765654 1329703623.735806 502 496 608 374 377 372
28.765654 1329703623.744457 502 497 608 373 375 372
28.802872 1329703623.751977 500 498 610 374 376 372
28.802872 1329703623.760692 496 498 613 376 375 370
28.850904 1329703623.768933 494 497 612 376 373 371
28.850904 1329703623.777894 492 498 612 376 372 372
28.886023 1329703623.797122 494 497 613 375 369 371
28.886023 1329703623.813285 493 497 612 371 366 370
28.927834 1329703623.818777 493 497 610 367 359 372
28.927834 1329703623.821355 492 498 607 366 356 374
28.960926 1329703623.827085 494 498 605 368 360 376
28.960926 1329703623.837403 496 496 604 368 371 376
29.007064 1329703623.843864 498 496 605 371 374 372
29.007064 1329703623.851982 496 500 605 379 370 373
29.043610 1329703623.860518 501 503 606 388 368 375
29.043610 1329703623.868532 508 502 606 384 378 369
29.085807 1329703623.877637 505 501 606 379 384 360
29.085807 1329703623.885662 500 497 605 382 375 361
29.126924 1329703623.894013 503 498 604 396 366 365
29.126924 1329703623.902344 509 501 604 411 367 365
29.162030 1329703623.910597 512 501 602 415 374 358
29.162030 1329703623.918651 509 493 600 416 377 354
29.201758 1329703623.927601 518 492 598 423 375 359
29.201758 1329703623.935928 518 498 600 447 381 367
29.243094 1329703623.944664 523 496 601 476 389 367
29.243094 1329703623.952387 529 489 604 495 390 371
29.284856 1329703623.960589 530 484 603 514 380 374
29.284856 1329703623.969235 533 477 601 532 372 380
29.326143 1329703623.977357 541 476 598 551 371 386
29.326143 1329703623.995010 539 470 595 565 374 384
29.371062 1329703624.001975 539 461 593 582 374 382
29.371062 1329703624.010574 538 456 591 599 371 384
29.400876 1329703624.019131 540 449 587 609 372 381
29.400876 1329703624.027120 536 441 580 601 372 377
29.442483 1329703624.035778 534 435 573 579 370 374
29.442483 1329703624.047816 531 432 570 550 373 371
29.484422 1329703624.052171 528 429 566 530 373 368
29.484422 1329703624.062757 520 429 564 512 371 366
29.525510 1329703624.069632 519 423 562 493 367 363
29.525510 1329703624.079950 519 419 560 469 368 361
29.567262 1329703624.085699 519 416 559 443 375 360
29.567262 1329703624.094161 514 410 557 419 379 357
29.600686 1329703624.102073 510 407 558 397 380 358
29.600686 1329703624.110657 510 408 559 371 384 360
29.642292 1329703624.118808 510 407 560 339 386 363
29.642292 1329703624.126993 512 409 561 306 387 362
29.684185 1329703624.135690 517 413 565 276 389 358
29.684185 1329703624.144510 519 415 568 249 388 354
29.725743 1329703624.152514 518 416 570 230 384 352
29.725743 1329703624.160193 520 418 573 217 376 351
29.766975 1329703624.169095 526 419 578 207 375 351
29.766975 1329703624.177611 527 423 582 197 377 350
29.801564 1329703624.196262 530 428 584 186 375 353
29.801564 1329703624.202866 532 437 586 174 371 354
29.842260 1329703624.210899 530 445 589 177 363 351
29.842260 1329703624.218881 528 446 590 189 353 353
29.887875 1329703624.227129 530 445 590 208 349 359
29.887875 1329703624.235665 529 451 592 222 352 369
29.919764 1329703624.248174 528 467 593 233 355 373
29.919764 1329703624.252352 523 475 594 245 355 370
29.966981 1329703624.261086 523 470 596 264 352 372
29.966981 1329703624.269095 523 474 597 287 351 379
30.001870 1329703624.277368 522 486 596 304 349 387
30.001870 1329703624.285528 518 490 595 315 354 390
30.042670 1329703624.294078 519 488 596 327 359 391
30.042670 1329703624.302467 515 487 595 338 362 392
30.084191 1329703624.310961 512 491 595 343 361 397
30.084191 1329703624.318706 511 496 597 345 362 398
30.134398 1329703624.326996 513 495 598 339 369 396
30.134398 1329703624.335689 512 494 599 340 379 392
30.160054 1329703624.357142 509 498 599 340 382 386
30.160054 1329703624.360535 503 497 601 342 378 384
30.206651 1329703624.369210 502 495 602 345 376 384
30.206651 1329703624.376817 505 499 603 353 380 383
30.241995 1329703624.385386 508 499 603 363 387 379
30.241995 1329703624.393834 504 498 605 368 392 374
30.284351 1329703624.402198 501 499 607 368 394 373
30.284351 1329703624.410843 503 499 607 369 394 371
30.325718 1329703624.419041 506 500 607 372 394 368
30.325718 1329703624.426921 508 497 606 376 391 365
30.367733 1329703624.435273 505 495 606 377 391 364
30.367733 1329703624.443908 500 493 604 379 389 367
30.411976 1329703624.459569 500 491 604 381 388 371
30.411976 1329703624.483932 502 492 605 378 392 374
30.442825 1329703624.498664 508 495 607 375 396 372
30.442825 1329703624.501808 509 496 609 372 394 369
30.484053 1329703624.510310 508 497 612 375 387 366
30.484053 1329703624.518823 507 497 612 379 381 365
30.526253 1329703624.527400 507 496 611 375 376 364
30.526253 1329703624.547043 506 494 610 368 375 363
30.574379 1329703624.553608 508 496 610 371 373 365
30.574379 1329703624.560635 511 499 610 377 374 366
30.601274 1329703624.568619 510 497 611 377 377 363
30.601274 1329703624.577007 509 494 610 372 376 362
30.642476 1329703624.585639 508 491 610 368 373 363
30.642476 1329703624.597334 507 492 607 367 372 365
30.684329 1329703624.602140 507 493 605 371 372 367
30.684329 1329703624.610267 506 496 606 375 375 370
30.726250 1329703624.618786 507 496 606 375 376 372
30.726250 1329703624.627160 507 495 605 372 372 373
30.767335 1329703624.635491 509 495 604 368 372 371
30.767335 1329703624.644063 511 495 603 368 376 370
30.800886 1329703624.652425 510 495 604 372 377 370
30.800886 1329703624.660249 509 494 604 376 377 370
30.842849 1329703624.668653 508 495 604 378 374 372
30.842849 1329703624.677251 510 495 604 375 376 370
30.884274 1329703624.685673 511 494 606 369 380 369
30.884274 1329703624.694088 511 492 607 369 382 369
30.925638 1329703624.702151 510 493 607 374 380 369
30.925638 1329703624.710305 511 493 607 374 379 370
30.971282 1329703624.719334 512 496 608 373 378 371
30.971282 1329703624.726854 513 495 608 369 374 370
31.000571 1329703624.738588 512 495 607 368 371 370
31.000571 1329703624.743906 513 496 606 369 371 370
31.042623 1329703624.751846 513 496 606 370 373 370
31.042623 1329703624.760336 512 497 606 370 373 369
31.084710 1329703624.768436 512 497 606 368 373 370
31.084710 1329703624.776701 512 496 604 368 371 370
31.133813 1329703624.787069 513 496 603 369 371 372
31.133813 1329703624.793504 514 496 603 372 373 372
31.167351 1329703624.801801 514 498 603 373 377 372
31.167351 1329703624.811308 513 498 603 374 377 370
31.218811 1329703624.818448 513 497 603 373 377 370
31.218811 1329703624.826634 513 496 603 372 377 370
31.242366 1329703624.835180 512 495 604 374 376 371
31.242366 1329703624.843674 512 495 604 374 376 373
31.283781 1329703624.851894 512 496 604 374 378 373
31.283781 1329703624.860986 512 497 604 372 378 373
31.348938 1329703624.868205 511 496 605 367 380 372
31.348938 1329703624.876889 509 496 605 367 379 373
31.363467 1329703624.885273 506 496 605 370 377 375
31.363467 1329703624.893658 503 496 605 371 378 375
31.411904 1329703624.902330 502 495 605 371 381 376
31.411904 1329703624.910393 500 497 607 370 383 375
31.442312 1329703624.918147 498 497 608 372 385 376
31.442312 1329703624.926425 495 496 607 373 386 375
31.483363 1329703624.935071 493 496 608 370 387 375
31.483363 1329703624.943624 492 497 610 366 389 374
31.525626 1329703624.952179 492 497 613 364 385 376
31.525626 1329703624.960274 490 495 614 368 380 380
31.566887 1329703624.967746 492 496 614 371 379 382
31.566887 1329703624.976116 494 500 616 367 382 381
31.603883 1329703624.990427 495 502 617 362 379 378
31.603883 1329703625.005106 495 499 615 365 371 378
31.655796 1329703625.018075 498 496 613 373 367 379
31.655796 1329703625.033171 500 500 614 375 370 378
31.683404 1329703625.045595 502 505 614 377 372 376
31.683404 1329703625.051219 501 504 611 385 368 375
31.724250 1329703625.059767 508 499 606 392 365 375
31.724250 1329703625.068079 513 503 605 391 376 370
31.765992 1329703625.076334 513 504 607 386 386 366
31.765992 1329703625.084319 513 503 609 394 383 366
31.800697 1329703625.092766 518 499 609 407 374 367
31.800697 1329703625.100965 520 499 605 416 371 368
31.840496 1329703625.109702 523 498 603 423 368 368
31.840496 1329703625.123075 525 497 601 440 366 372
31.882129 1329703625.126009 533 499 602 467 365 377
31.882129 1329703625.133915 539 499 600 502 369 376
31.923906 1329703625.142502 539 496 598 530 378 370
31.923906 1329703625.150941 539 491 596 551 382 368
31.965324 1329703625.159855 537 478 593 567 376 370
31.965324 1329703625.167816 539 467 590 586 367 372
32.006691 1329703625.175962 537 461 585 600 365 369
32.006691 1329703625.184966 534 456 582 607 366 371
32.040070 1329703625.192206 536 448 576 607 368 373
32.040070 1329703625.201229 536 437 574 606 372 373
32.081651 1329703625.208828 533 429 571 607 379 368
32.081651 1329703625.229367 530 424 566 598 380 369
32.123558 1329703625.233949 528 420 561 579 374 374
32.123558 1329703625.242135 527 419 560 553 373 371
32.164598 1329703625.250638 523 418 560 531 373 365
32.164598 1329703625.258496 522 414 559 504 376 361
32.199790 1329703625.266765 516 412 558 469 373 362
32.199790 1329703625.279229 516 409 555 431 366 364
32.239797 1329703625.283786 516 407 554 393 361 369
32.239797 1329703625.292075 514 407 551 353 362 368
32.281239 1329703625.300382 514 407 550 313 364 369
32.281239 1329703625.308809 514 411 551 277 371 366
32.323136 1329703625.316544 515 416 553 250 378 362
32.323136 1329703625.346017 516 417 555 228 384 357
32.363544 1329703625.351160 519 418 560 208 389 354
32.363544 1329703625.358626 520 420 562 189 391 356
32.406285 1329703625.368036 519 424 566 176 388 354
32.406285 1329703625.374739 522 427 570 172 385 351
32.447857 1329703625.383097 526 429 575 166 387 349
32.447857 1329703625.391671 523 440 580 162 390 349
32.481363 1329703625.401182 527 449 585 163 388 347
32.481363 1329703625.409184 531 448 588 170 382 352
32.523049 1329703625.416487 534 447 589 183 375 359
32.523049 1329703625.424958 529 455 592 195 374 367
32.562967 1329703625.433733 526 464 594 205 372 371
32.562967 1329703625.441778 532 472 597 222 370 375
32.600531 1329703625.452239 536 476 597 243 369 380
32.600531 1329703625.458260 536 480 599 266 372 384
32.648112 1329703625.466505 530 489 602 290 371 386
32.648112 1329703625.474981 528 497 604 310 365 384
32.681258 1329703625.483066 529 494 603 323 364 386
32.681258 1329703625.491836 529 490 603 331 370 387
32.722902 1329703625.499969 528 498 606 341 371 393
32.722902 1329703625.508920 521 504 609 349 368 391
32.764714 1329703625.516355 520 500 608 351 365 383
32.764714 1329703625.524714 519 499 607 348 364 379
32.807238 1329703625.532928 521 501 606 351 366 377
32.807238 1329703625.541583 516 503 607 360 368 376
32.851002 1329703625.549973 514 504 608 368 370 377
32.851002 1329703625.561381 518 504 606 372 375 375
32.881655 1329703625.566907 519 504 604 368 377 371
32.881655 1329703625.579624 517 501 606 364 375 368
32.924343 1329703625.583012 510 500 608 368 370 369
32.924343 1329703625.591318 508 498 608 372 366 372
32.972413 1329703625.599921 506 498 608 371 365 372
32.972413 1329703625.610431 508 502 606 368 367 371
33.006823 1329703625.616162 507 506 605 369 369 367
33.006823 1329703625.624798 506 503 605 374 368 363
33.048513 1329703625.633297 501 497 604 380 366 362
33.048513 1329703625.641354 498 492 605 383 372 365
33.080373 1329703625.650860 499 497 605 383 383 369
33.080373 1329703625.658091 500 497 605 378 387 367
33.123385 1329703625.666250 502 497 605 378 390 366
33.123385 1329703625.675579 508 496 607 382 386 364
33.164821 1329703625.683089 507 494 609 388 384 364
33.164821 1329703625.691665 505 493 609 386 379 366
33.206782 1329703625.699733 505 494 608 381 371 366
33.206782 1329703625.708345 508 495 608 378 368 367
33.248495 1329703625.716250 510 495 607 376 371 365
33.248495 1329703625.724412 509 497 607 371 372 364
33.293945 1329703625.733079 509 495 606 362 370 363
33.293945 1329703625.741554 506 495 606 356 368 363
33.324329 1329703625.749938 507 494 606 356 369 364
33.324329 1329703625.758073 508 497 605 359 371 364
33.365553 1329703625.766160 508 498 604 360 373 363
33.365553 1329703625.774659 506 498 603 362 374 364
33.426818 1329703625.783262 505 498 604 370 373 368
33.426818 1329703625.791507 508 497 604 378 374 370
33.451070 1329703625.799975 509 499 606 380 377 367
33.451070 1329703625.808328 510 497 607 377 377 365
33.481743 1329703625.818841 508 497 606 371 375 364
33.481743 1329703625.833700 509 494 605 371 371 366
33.523268 1329703625.845657 511 495 605 375 375 368
33.523268 1329703625.851320 513 495 607 377 382 367
33.565840 1329703625.858247 512 497 608 374 384 369
33.565840 1329703625.875611 510 496 608 369 380 368
33.606561 1329703625.878838 510 496 606 365 371 371
33.606561 1329703625.882999 514 496 605 364 369 370
33.640788 1329703625.891675 514 499 605 367 371 369
33.640788 1329703625.899829 512 499 605 370 372 370
33.681352 1329703625.908244 511 498 603 371 370 370
33.681352 1329703625.916670 511 498 602 373 370 372
33.730715 1329703625.924755 511 499 602 377 372 372
33.730715 1329703625.943477 512 498 603 379 374 370
33.764668 1329703625.949569 512 499 602 377 376 371
33.764668 1329703625.958205 512 499 603 376 381 370
33.806664 1329703625.966619 511 497 603 375 385 370
33.806664 1329703625.974735 513 496 605 375 387 371
33.848323 1329703625.982897 512 497 607 375 386 373
33.848323 1329703625.991434 513 498 607 374 381 373
33.897373 1329703626.000474 514 498 606 371 378 374
33.897373 1329703626.008325 514 499 607 370 378 374
33.922675 1329703626.016546 515 500 607 371 379 373
33.922675 1329703626.024975 513 499 607 374 378 373
33.965212 1329703626.033175 513 499 607 375 376 374
33.965212 1329703626.043993 513 499 607 374 374 372
34.006576 1329703626.049816 514 499 606 372 374 373
34.006576 1329703626.058136 512 500 606 372 375 372
34.060439 1329703626.066744 512 499 605 374 376 373
34.060439 1329703626.074809 512 499 605 375 377 373
34.080892 1329703626.082812 512 500 606 377 377 372
34.080892 1329703626.091262 511 500 606 374 375 371
34.122860 1329703626.099878 510 500 605 371 374 369
34.122860 1329703626.107881 507 499 605 372 374 369
34.164678 1329703626.121626 506 498 606 375 376 371
34.164678 1329703626.124768 505 499 607 374 378 370
34.205576 1329703626.133118 502 499 607 373 379 369
34.205576 1329703626.143242 500 500 607 373 379 368
34.247749 1329703626.157637 497 501 607 375 379 368
34.247749 1329703626.162210 494 501 608 373 381 367
34.281223 1329703626.177073 491 501 608 373 380 364
34.281223 1329703626.189613 489 501 609 368 378 363
34.333784 1329703626.203455 490 503 610 368 382 366
34.333784 1329703626.227589 492 504 613 371 389 363
34.381443 1329703626.241987 490 503 614 374 385 362
34.381443 1329703626.244843 490 498 613 378 374 363
34.409961 1329703626.249810 495 499 612 384 371 367
34.409961 1329703626.258128 500 503 612 389 373 366
34.441959 1329703626.266216 501 503 612 393 377 362
34.441959 1329703626.274949 500 501 610 389 377 357
34.483696 1329703626.285002 505 493 607 378 377 353
34.483696 1329703626.291549 509 497 610 374 383 351
34.521948 1329703626.299530 510 500 610 380 384 349
34.521948 1329703626.308117 510 497 608 386 380 351
34.563717 1329703626.316841 517 498 606 391 380 348
34.563717 1329703626.325138 521 498 606 386 385 344
34.604701 1329703626.335828 519 494 605 384 384 344
34.604701 1329703626.341324 521 495 601 392 373 349
34.640478 1329703626.349796 533 502 599 404 377 351
34.640478 1329703626.359258 534 506 600 416 388 345
34.681585 1329703626.366783 529 497 602 425 387 344
34.681585 1329703626.375175 532 487 600 443 378 351
34.725078 1329703626.383657 539 482 596 473 379 360
34.725078 1329703626.391427 537 485 595 506 389 368
34.762634 1329703626.400119 537 484 593 540 396 377
34.762634 1329703626.408221 540 482 591 568 397 385
34.804340 1329703626.416694 543 474 588 594 400 389
34.804340 1329703626.425672 544 464 584 611 400 392
34.845806 1329703626.433398 544 453 581 622 403 395
34.845806 1329703626.441684 544 448 577 628 405 397
34.887617 1329703626.449941 542 443 574 627 406 395
34.887617 1329703626.458257 540 439 572 618 405 386
34.920694 1329703626.467641 540 431 572 596 400 381
34.920694 1329703626.475458 535 425 572 571 394 379
34.965303 1329703626.483235 531 422 570 541 388 376
34.965303 1329703626.491399 528 419 568 506 379 373
35.003497 1329703626.499655 525 416 565 467 373 369
35.003497 1329703626.508263 521 411 564 427 369 366
35.045714 1329703626.516839 521 410 563 391 367 367
35.045714 1329703626.527769 517 408 564 358 367 368
35.087400 1329703626.533327 519 412 562 322 369 367
35.087400 1329703626.541518 521 414 562 284 371 364
35.120524 1329703626.550156 526 415 563 247 370 360
35.120524 1329703626.558542 527 418 567 216 370 356
35.162173 1329703626.566590 525 420 570 191 371 353
35.162173 1329703626.581952 527 423 572 173 367 352
35.203700 1329703626.594210 527 427 576 162 362 353
35.203700 1329703626.602639 531 434 580 161 361 354
35.245772 1329703626.607828 533 440 582 166 360 353
35.245772 1329703626.616255 534 439 583 170 358 354
35.279635 1329703626.625017 532 445 587 178 358 359
35.279635 1329703626.633370 533 458 589 191 359 360
35.320594 1329703626.643952 532 463 592 208 359 364
35.320594 1329703626.649869 530 460 594 229 357 370
35.362067 1329703626.658232 531 463 593 246 358 375
35.362067 1329703626.666616 531 472 594 257 365 380
35.403832 1329703626.674860 530 480 598 269 369 383
35.403832 1329703626.683302 527 483 601 284 367 388
35.446010 1329703626.697192 523 485 602 296 362 391
35.446010 1329703626.700334 527 491 602 304 360 391
35.486656 1329703626.708951 529 496 602 314 364 391
35.486656 1329703626.716214 525 494 604 327 364 393
35.520342 1329703626.725039 523 495 604 337 362 397
35.520342 1329703626.733086 523 506 602 343 361 395
35.563573 1329703626.749934 525 508 602 346 363 389
35.563573 1329703626.758170 523 501 603 355 366 385
35.605348 1329703626.766609 516 496 604 362 367 386
35.605348 1329703626.774653 515 500 604 367 369 389
35.645250 1329703626.783163 517 508 602 363 367 386
35.645250 1329703626.791406 517 510 601 358 371 380
35.687216 1329703626.801060 512 503 604 357 376 374
35.687216 1329703626.807994 513 498 605 363 377 376
35.720447 1329703626.816408 513 502 606 370 376 377
35.720447 1329703626.824918 512 509 604 371 372 374
35.763290 1329703626.833314 513 507 604 366 372 371
35.763290 1329703626.841463 511 503 607 369 376 368
35.804069 1329703626.849600 512 497 608 378 374 368
35.804069 1329703626.857963 511 500 607 384 372 370
35.845675 1329703626.866280 510 505 606 384 373 371
35.845675 1329703626.875206 508 501 607 379 375 368
35.883381 1329703626.883182 507 496 608 378 376 366
35.883381 1329703626.891431 509 495 608 378 372 366
35.920826 1329703626.907809 507 498 607 375 370 366
35.920826 1329703626.922879 505 502 606 372 368 367
35.963431 1329703626.937980 506 501 605 370 368 365
35.963431 1329703626.941540 506 498 604 369 371 364
36.005996 1329703626.950267 506 497 604 371 375 364
36.005996 1329703626.958456 506 498 603 371 379 365
36.045178 1329703626.966558 505 501 604 371 379 367
36.045178 1329703626.974645 506 503 604 372 380 367
36.087432 1329703626.983603 509 500 604 374 383 364
36.087432 1329703626.991456 509 499 605 374 382 363
36.120761 1329703627.000477 507 497 605 376 382 362
36.120761 1329703627.008376 506 499 606 375 380 365
36.163164 1329703627.019868 508 499 607 372 377 365
36.163164 1329703627.025488 510 498 609 371 376 363
36.203663 1329703627.033137 510 499 610 370 376 361
36.203663 1329703627.041386 510 498 609 367 375 361
36.247138 1329703627.050005 509 500 608 366 377 360
36.247138 1329703627.058065 507 498 608 369 373 363
36.280561 1329703627.075242 509 498 607 369 375 364
36.280561 1329703627.090070 508 498 608 370 375 364
36.320519 1329703627.093657 510 499 608 368 377 365
36.320519 1329703627.099625 510 500 606 366 380 363
36.362463 1329703627.108052 510 499 606 363 380 364
36.362463 1329703627.116632 510 501 607 361 380 366
36.403731 1329703627.132539 511 499 606 364 378 367
36.403731 1329703627.147994 510 498 604 367 373 368
36.445812 1329703627.163044 512 501 604 372 372 370
36.445812 1329703627.186433 515 503 606 374 374 370
36.487494 1329703627.191350 512 504 606 377 374 370
36.487494 1329703627.199702 510 503 605 377 369 370
36.520708 1329703627.207944 512 502 603 377 367 369
36.520708 1329703627.216239 514 502 604 375 370 367
36.562273 1329703627.224783 511 501 605 375 374 366
36.562273 1329703627.233245 508 499 605 375 375 366
36.603870 1329703627.241396 507 501 604 376 374 369
36.603870 1329703627.249537 511 502 605 375 376 368
36.640732 1329703627.258615 511 501 606 370 379 368
36.640732 1329703627.268009 511 500 607 367 382 369
36.686965 1329703627.274613 510 500 607 369 381 370
36.686965 1329703627.282815 510 501 607 374 378 373
36.720158 1329703627.291407 512 501 606 377 375 375
36.720158 1329703627.299576 513 502 606 375 373 373
36.759721 1329703627.307864 515 503 606 374 373 372
36.759721 1329703627.323865 514 503 605 374 376 372
36.803818 1329703627.348313 514 502 606 374 378 371
36.803818 1329703627.360502 513 501 605 375 379 370
36.852907 1329703627.366270 514 503 606 375 377 370
36.852907 1329703627.374637 513 502 605 375 374 370
36.886866 1329703627.382516 513 500 604 375 374 371
36.886866 1329703627.391106 513 502 604 375 377 370
36.926641 1329703627.406276 513 503 604 375 379 371
36.926641 1329703627.411500 511 502 604 375 379 370
36.961770 1329703627.426941 511 500 604 374 378 370
36.961770 1329703627.442401 512 501 605 375 377 372
37.009207 1329703627.466051 512 502 605 377 376 372
37.009207 1329703627.469361 512 502 605 374 378 371
37.044563 1329703627.474783 511 502 604 374 379 370
37.044563 1329703627.489271 511 501 605 376 382 368
37.080239 1329703627.492456 510 501 605 378 382 370
37.080239 1329703627.499637 508 499 606 380 383 370
37.120173 1329703627.507568 506 498 606 378 380 369
37.120173 1329703627.515941 504 498 607 379 380 370
37.168702 1329703627.524343 503 498 608 379 380 370
37.168702 1329703627.532669 501 498 610 378 382 372
37.203287 1329703627.540847 499 496 611 377 383 371
37.203287 1329703627.549454 495 495 612 376 381 372
37.244630 1329703627.557423 491 496 612 373 378 373
37.244630 1329703627.566052 490 497 612 370 376 374
37.286350 1329703627.574158 489 497 611 368 373 375
37.286350 1329703627.582755 486 496 609 366 371 375
37.327585 1329703627.593661 485 498 607 369 372 376
37.327585 1329703627.599518 487 501 607 375 376 375
37.361134 1329703627.607229 488 503 607 377 382 373
37.361134 1329703627.615804 485 501 607 380 380 371
37.402480 1329703627.624043 486 503 606 389 376 372
37.402480 1329703627.635957 500 508 609 400 382 373
37.444064 1329703627.640580 503 510 609 400 391 363
37.444064 1329703627.649264 500 499 608 392 389 354
37.485902 1329703627.657412 507 491 607 388 387 353
37.485902 1329703627.665985 519 499 611 392 391 355
37.526895 1329703627.674047 520 503 614 397 394 355
37.526895 1329703627.683509 519 499 610 396 385 356
37.560348 1329703627.690728 520 493 606 395 374 360
37.560348 1329703627.699363 528 490 606 407 368 370
37.601909 1329703627.708045 536 498 606 435 371 381
37.601909 1329703627.715761 540 504 604 456 371 383
37.644988 1329703627.724022 539 498 602 473 371 379
37.644988 1329703627.745587 542 490 600 490 371 379
37.684890 1329703627.759298 547 491 599 513 372 383
37.684890 1329703627.765410 550 495 598 537 379 382
37.726739 1329703627.774375 551 489 593 558 386 373
37.726739 1329703627.782020 551 473 589 576 386 365
37.767991 1329703627.790259 546 461 589 596 384 364
37.767991 1329703627.798823 543 455 589 616 382 369
37.801368 1329703627.806779 539 455 583 621 378 369
37.801368 1329703627.815478 538 451 577 607 373 364
37.842841 1329703627.823949 536 440 573 587 371 362
37.842841 1329703627.832231 533 429 572 570 370 362
37.884993 1329703627.840190 529 422 570 554 372 361
37.884993 1329703627.849133 527 419 566 534 372 362
37.926926 1329703627.856643 522 418 563 504 371 362
37.926926 1329703627.865269 521 418 560 469 371 362
37.967747 1329703627.874349 519 412 560 433 374 362
37.967747 1329703627.881807 518 408 560 400 374 363
38.000838 1329703627.890139 517 408 560 368 374 367
38.000838 1329703627.898932 518 411 561 335 375 368
38.042331 1329703627.917104 518 414 563 300 380 367
38.042331 1329703627.923750 520 416 562 264 385 364
38.084522 1329703627.932041 523 418 562 230 385 362
38.084522 1329703627.940025 523 422 565 201 382 361
38.120371 1329703627.948282 523 428 571 181 380 356
38.120371 1329703627.956837 526 431 575 171 374 351
38.160177 1329703627.973073 527 435 579 168 366 348
38.160177 1329703627.984616 528 439 582 162 364 346
38.201862 1329703627.992005 527 440 584 163 361 345
38.201862 1329703628.004005 528 447 587 166 365 350
38.243009 1329703628.006658 529 456 589 174 367 348
38.243009 1329703628.014576 527 457 589 188 362 351
38.284363 1329703628.022406 529 459 589 207 360 361
38.284363 1329703628.032446 531 471 592 234 363 371
38.325787 1329703628.039568 533 482 592 259 369 373
38.325787 1329703628.047712 533 483 592 283 369 375
38.369677 1329703628.055869 532 483 594 308 368 382
38.369677 1329703628.065524 533 490 597 331 372 389
38.400763 1329703628.085840 535 494 598 348 377 392
38.400763 1329703628.089282 533 490 599 359 383 394
38.442214 1329703628.098342 530 486 602 366 388 397
38.442214 1329703628.105837 530 487 606 374 387 401
38.485237 1329703628.113917 531 494 608 376 380 401
38.485237 1329703628.131752 528 498 609 370 374 397
38.525573 1329703628.142683 527 495 610 363 372 393
38.525573 1329703628.147376 526 488 610 360 370 390
38.568369 1329703628.155603 526 490 609 359 367 389
38.568369 1329703628.163889 524 496 608 356 367 385
38.601517 1329703628.172100 518 495 607 348 369 383
38.601517 1329703628.180588 514 491 606 344 371 384
38.644015 1329703628.188642 515 490 606 346 372 383
38.644015 1329703628.197498 515 491 605 347 375 378
38.684577 1329703628.205755 513 495 605 352 379 373
38.684577 1329703628.214031 514 498 606 358 384 370
38.726437 1329703628.222342 512 503 606 361 384 370
38.726437 1329703628.230330 511 501 607 364 377 370
38.759592 1329703628.238780 510 495 607 367 375 371
38.759592 1329703628.247271 511 491 607 367 375 374
38.801448 1329703628.255507 513 495 604 366 376 379
38.801448 1329703628.264018 514 497 603 366 371 383
38.842501 1329703628.271972 515 493 602 366 369 383
38.842501 1329703628.288856 513 490 603 364 368 382
38.887414 1329703628.291027 510 492 604 362 367 382
38.887414 1329703628.297307 511 500 605 361 370 379
38.926024 1329703628.305579 513 503 606 367 372 376
38.926024 1329703628.313838 514 500 606 374 372 372
38.965584 1329703628.321933 509 500 608 381 370 368
38.965584 1329703628.330254 509 498 609 382 369 367
39.001025 1329703628.338748 511 496 609 378 371 363
39.001025 1329703628.347359 512 502 610 379 374 364
39.042732 1329703628.355498 512 502 612 380 373 363
39.042732 1329703628.363759 507 497 612 381 368 362
39.085503 1329703628.372055 504 495 611 377 363 362
39.085503 1329703628.380403 507 498 608 365 361 362
39.125536 1329703628.388458 511 497 608 358 365 360
39.125536 1329703628.397478 507 498 608 358 367 362
39.167829 1329703628.405465 504 496 605 362 366 366
39.167829 1329703628.413800 506 496 603 367 365 369
39.201308 1329703628.421978 508 499 603 366 368 367
39.201308 1329703628.430370 509 500 603 362 372 361
39.242942 1329703628.438352 507 498 604 362 373 359
39.242942 1329703628.447341 505 495 602 370 372 360
39.284505 1329703628.455440 508 496 602 378 374 362
39.284505 1329703628.463752 510 499 603 382 378 362
39.324296 1329703628.472336 508 498 605 380 379 362
39.324296 1329703628.484038 506 497 607 381 376 365
39.367667 1329703628.491469 507 495 605 380 371 365
39.367667 1329703628.497250 510 495 606 376 371 366
39.401872 1329703628.505357 511 498 607 372 374 365
39.401872 1329703628.513531 510 498 607 373 377 365
39.442607 1329703628.522028 509 496 606 374 376 367
39.442607 1329703628.538073 510 496 605 375 376 365
39.484682 1329703628.549700 510 498 607 376 372 367
39.484682 1329703628.555864 511 498 606 379 370 368
39.525507 1329703628.563913 512 499 605 379 370 369
39.525507 1329703628.572400 513 498 604 377 374 369
39.567685 1329703628.580535 512 497 604 376 378 367
39.567685 1329703628.589182 511 497 604 376 378 369
39.600967 1329703628.608101 511 497 603 375 378 370
39.600967 1329703628.613735 513 497 603 376 378 368
39.643058 1329703628.622189 514 498 604 376 380 369
39.643058 1329703628.630401 512 497 605 377 381 369
39.683713 1329703628.638866 512 497 605 378 379 371
39.683713 1329703628.648440 512 497 605 376 377 371
39.747251 1329703628.662306 513 497 605 375 378 370
39.747251 1329703628.666231 514 498 606 376 380 371
39.761338 1329703628.677074 514 496 606 376 381 370
39.761338 1329703628.680218 512 496 606 375 380 370
39.800639 1329703628.688717 512 496 606 373 378 371
39.800639 1329703628.697183 513 496 606 374 377 373
39.842467 1329703628.711649 514 496 606 376 378 372
39.842467 1329703628.725819 513 497 606 374 378 372
39.883739 1329703628.731282 513 497 606 374 378 371
39.883739 1329703628.738640 514 496 606 376 375 371
39.925743 1329703628.747309 514 496 607 377 375 373
39.925743 1329703628.755592 514 497 607 377 376 374
39.967099 1329703628.763402 514 497 607 375 375 373
39.967099 1329703628.775297 514 497 606 374 375 372
40.010624 1329703628.780256 513 496 605 374 374 371
40.010624 1329703628.788626 514 497 606 374 373 372
40.059003 1329703628.797244 513 497 605 374 374 373
40.059003 1329703628.805555 514 498 605 374 375 372
40.083814 1329703628.813533 513 498 604 372 376 371
40.083814 1329703628.821987 512 495 604 373 375 371
40.125422 1329703628.830620 512 496 605 374 375 373
40.125422 1329703628.838898 512 496 603 375 376 371
40.166921 1329703628.847056 509 495 604 375 376 371
40.166921 1329703628.855288 507 494 604 373 376 371
40.201163 1329703628.863978 504 493 603 371 379 370
40.201163 1329703628.871989 501 492 603 368 382 370
40.244486 1329703628.888454 499 493 604 365 383 371
40.244486 1329703628.891413 498 494 605 362 386 368
40.284474 1329703628.897131 495 495 606 362 386 370
40.284474 1329703628.905427 492 495 606 361 385 371
40.325082 1329703628.914079 490 496 605 364 384 375
40.325082 1329703628.922093 490 498 605 371 384 377
40.367148 1329703628.930627 492 500 608 374 389 373
40.367148 1329703628.939678 492 501 610 374 390 369
40.410549 1329703628.946995 491 500 611 376 383 367
40.410549 1329703628.955195 495 502 610 380 379 368
40.441739 1329703628.963935 500 503 610 380 382 364
40.441739 1329703628.972353 500 505 611 377 388 358
40.482923 1329703628.980844 498 502 608 373 383 353
40.482923 1329703629.000140 504 499 608 367 380 354
40.525875 1329703629.007220 510 498 608 369 383 354
40.525875 1329703629.014031 510 504 607 367 388 352
40.568956 1329703629.022159 511 500 606 367 387 351
40.568956 1329703629.030753 515 497 606 365 384 351
40.607018 1329703629.039168 523 497 608 360 388 353
40.607018 1329703629.055303 523 498 608 359 389 353
40.641324 1329703629.058071 523 496 604 363 384 355
40.641324 1329703629.064051 526 498 603 362 383 358
40.695864 1329703629.072420 533 502 605 362 383 358
40.695864 1329703629.080947 533 504 606 375 380 361
40.724195 1329703629.089344 534 506 606 402 378 367
40.724195 1329703629.097734 539 502 603 441 380 370
40.765329 1329703629.105656 544 505 603 481 383 375
40.765329 1329703629.114338 546 506 606 521 386 377
40.806815 1329703629.122280 545 500 605 558 391 376
40.806815 1329703629.130935 547 489 601 592 392 377
40.840147 1329703629.139316 548 481 598 623 395 382
40.840147 1329703629.154504 547 474 594 645 402 384
40.881027 1329703629.157383 548 465 590 656 403 384
40.881027 1329703629.163960 546 457 588 655 401 380
40.924113 1329703629.172816 546 446 584 646 395 374
40.924113 1329703629.180942 540 439 580 628 385 371
40.965458 1329703629.189241 538 435 578 603 383 371
40.965458 1329703629.197291 535 429 576 572 381 368
41.014207 1329703629.205477 531 427 573 540 377 366
41.014207 1329703629.214377 528 423 571 504 371 366
41.039826 1329703629.222130 525 418 568 470 365 366
41.039826 1329703629.230814 524 417 566 433 356 366
41.081239 1329703629.239273 523 415 563 392 352 366
41.081239 1329703629.247281 521 411 561 348 350 367
41.122906 1329703629.264116 520 413 559 305 349 370
41.122906 1329703629.272237 522 416 558 268 349 371
41.176028 1329703629.280238 522 422 559 235 351 368
41.176028 1329703629.289155 524 425 561 207 355 365
41.213223 1329703629.297166 526 426 563 188 360 361
41.213223 1329703629.305443 523 432 565 176 360 359
41.240079 1329703629.315071 527 439 569 165 361 354
41.240079 1329703629.322369 529 442 573 154 367 350
41.281588 1329703629.330668 530 441 577 152 369 351
41.281588 1329703629.338886 531 445 582 158 370 355
41.322549 1329703629.347194 534 456 586 175 371 359
41.322549 1329703629.355495 539 464 589 196 372 364
41.365137 1329703629.364181 539 464 593 220 378 372
41.365137 1329703629.372315 542 470 597 251 383 382
41.400157 1329703629.380661 545 479 598 279 381 390
41.400157 1329703629.388565 544 485 599 295 375 391
41.450569 1329703629.397148 541 485 601 308 372 393
41.450569 1329703629.405805 540 484 604 323 367 396
41.498033 1329703629.422582 542 489 605 333 361 394
41.498033 1329703629.428673 540 496 606 339 355 391
41.521332 1329703629.442883 533 494 606 337 353 388
41.521332 1329703629.464959 527 488 607 339 352 390
41.565728 1329703629.472452 527 493 607 344 354 389
41.565728 1329703629.480793 530 498 606 346 357 382
41.606661 1329703629.489300 524 495 605 343 359 376
41.606661 1329703629.505886 513 492 606 337 360 376
41.656200 1329703629.521530 512 493 606 339 364 381
41.656200 1329703629.534171 514 499 604 344 369 383
41.681559 1329703629.549058 515 495 602 344 373 379
41.681559 1329703629.555871 507 496 605 349 377 375
41.723456 1329703629.564159 505 495 607 360 380 374
41.723456 1329703629.572373 504 494 607 370 377 374
41.765648 1329703629.586888 506 494 606 374 375 375
41.765648 1329703629.590160 506 501 606 377 374 373
41.806843 1329703629.597422 504 506 607 379 373 370
41.806843 1329703629.606958 501 504 608 384 371 372
41.848698 1329703629.614589 500 498 606 389 365 374
41.848698 1329703629.622398 501 496 607 390 361 378
41.881232 1329703629.631352 508 498 607 387 366 376
41.881232 1329703629.638849 510 499 606 381 370 371
41.924507 1329703629.647246 508 496 605 377 371 370
41.924507 1329703629.655769 507 494 605 378 375 374
41.978529 1329703629.664030 508 492 605 377 379 376
41.978529 1329703629.672625 509 494 606 374 378 377
42.009890 1329703629.680533 507 493 607 369 375 376
42.009890 1329703629.697765 512 494 605 365 373 374
42.049319 1329703629.705491 514 497 605 366 373 372
42.049319 1329703629.714065 513 498 605 367 368 368
42.081594 1329703629.722589 511 497 605 367 367 366
42.081594 1329703629.730868 510 496 606 368 370 365
42.129200 1329703629.738758 507 495 604 370 371 366
42.129200 1329703629.747318 504 494 604 369 371 365
42.165039 1329703629.755487 502 496 605 367 371 367
42.165039 1329703629.764000 501 495 604 366 369 369
42.208016 1329703629.772474 502 494 602 366 369 369
42.208016 1329703629.780696 502 494 602 367 373 368
42.246147 1329703629.788948 501 496 602 369 378 370
42.246147 1329703629.797148 501 498 601 373 382 371
42.284973 1329703629.805408 502 498 603 378 382 373
42.284973 1329703629.813772 504 497 605 378 382 375
42.322889 1329703629.822318 507 497 606 373 387 373
42.322889 1329703629.830705 508 495 607 367 390 371
42.366982 1329703629.850582 506 493 606 367 389 373
42.366982 1329703629.855421 508 493 607 370 385 373
42.406584 1329703629.863799 513 496 609 368 384 372
42.406584 1329703629.872770 515 499 610 368 383 371
42.441230 1329703629.880666 515 499 610 369 380 369
42.441230 1329703629.901912 516 498 611 372 376 369
42.490304 1329703629.905228 517 500 611 373 372 368
42.490304 1329703629.913602 515 500 610 375 370 366
42.523342 1329703629.921929 513 498 609 375 368 368
42.523342 1329703629.930672 513 498 608 377 365 368
42.564978 1329703629.939028 514 499 608 374 365 368
42.564978 1329703629.947040 513 499 607 371 367 368
42.599899 1329703629.959955 512 498 607 367 365 368
42.599899 1329703629.963391 511 498 605 366 363 371
42.639897 1329703629.972796 511 497 604 367 364 372
42.639897 1329703629.980314 511 499 602 371 367 373
42.681198 1329703629.989545 512 501 602 374 369 373
42.681198 1329703629.997264 511 500 601 377 372 371
42.723193 1329703630.006128 511 499 602 377 374 370
42.723193 1329703630.013237 512 499 604 377 376 370
42.761815 1329703630.021741 512 499 604 379 377 370
42.761815 1329703630.030629 510 497 605 378 376 371
42.814559 1329703630.039556 511 498 605 375 378 371
42.814559 1329703630.047026 512 498 606 373 377 371
42.847509 1329703630.057296 511 499 606 372 377 370
42.847509 1329703630.063315 511 498 606 372 378 370
42.881214 1329703630.071530 511 498 607 372 377 371
42.881214 1329703630.080359 511 498 607 373 375 372
42.928246 1329703630.088463 511 498 606 375 373 372
42.928246 1329703630.096916 510 498 606 376 373 373
42.964268 1329703630.114223 510 498 605 376 371 372
42.964268 1329703630.135998 511 499 607 374 375 372
43.006323 1329703630.139502 511 499 606 373 375 371
43.006323 1329703630.146679 508 497 605 374 376 373
43.047414 1329703630.154671 509 496 606 374 375 374
43.047414 1329703630.163546 509 497 606 376 374 375
43.081007 1329703630.171757 511 497 607 376 374 377
43.081007 1329703630.183325 511 497 606 376 373 376
43.122440 1329703630.188622 510 498 606 374 373 375
43.122440 1329703630.196583 511 499 605 372 373 375
43.164410 1329703630.204859 511 498 606 372 373 374
43.164410 1329703630.213731 510 497 605 372 374 373
43.205735 1329703630.221627 509 498 604 374 373 375
43.205735 1329703630.231575 509 498 603 376 371 375
43.248472 1329703630.238852 509 499 603 377 373 375
43.248472 1329703630.246470 509 499 603 374 374 375
43.280880 1329703630.255069 507 499 603 373 375 375
43.280880 1329703630.263693 506 498 602 371 376 375
43.322461 1329703630.271659 504 498 603 371 376 374
43.322461 1329703630.280272 503 498 603 371 378 373
43.373799 1329703630.300641 500 496 603 369 377 373
43.373799 1329703630.306423 497 495 604 368 378 373
43.405836 1329703630.313196 494 496 606 366 380 374
43.405836 1329703630.321613 492 497 605 366 380 375
43.447397 1329703630.330279 489 497 607 365 382 377
43.447397 1329703630.338223 488 495 608 361 380 379
43.480583 1329703630.347482 488 497 608 358 379 379
43.480583 1329703630.355309 488 497 608 357 379 378
43.522319 1329703630.363307 488 500 608 360 379 380
43.522319 1329703630.371460 491 503 609 362 379 380
43.563849 1329703630.379488 492 503 608 366 377 378
43.563849 1329703630.388325 494 503 609 370 376 375
43.604944 1329703630.396894 496 504 608 374 377 372
43.604944 1329703630.408574 496 505 607 379 375 368
43.655179 1329703630.413016 497 507 605 386 376 367
43.655179 1329703630.421290 501 507 607 386 383 361
43.679878 1329703630.429415 501 507 608 383 386 354
43.679878 1329703630.438321 498 504 609 388 383 353
43.721493 1329703630.446470 502 502 606 397 379 355
43.721493 1329703630.463781 512 499 605 400 385 357
43.763339 1329703630.478603 514 502 607 398 392 355
43.763339 1329703630.481895 512 500 609 395 390 353
43.804405 1329703630.488139 515 494 609 395 382 356
43.804405 1329703630.496402 518 498 607 397 376 360
43.845674 1329703630.504769 523 508 608 397 381 364
43.845674 1329703630.513362 523 504 607 404 383 366
43.887096 1329703630.524145 532 500 605 416 381 366
43.887096 1329703630.529522 534 500 604 437 383 364
43.926872 1329703630.537811 536 496 602 467 386 365
43.926872 1329703630.546461 540 494 603 498 390 364
43.962315 1329703630.555654 536 487 600 528 390 365
43.962315 1329703630.563280 537 485 596 552 389 368
44.004087 1329703630.571546 543 478 593 583 395 370
44.004087 1329703630.580099 539 470 590 618 401 375
44.045514 1329703630.587678 540 461 586 639 403 379
44.045514 1329703630.596448 541 450 582 651 401 380
44.087197 1329703630.604423 541 442 578 646 396 377
44.087197 1329703630.613294 538 439 576 627 392 373
44.120025 1329703630.621341 536 435 573 596 388 367
44.120025 1329703630.629956 529 426 570 572 385 361
44.163633 1329703630.638037 533 421 567 548 381 359
44.163633 1329703630.646596 523 416 567 515 380 358
44.202891 1329703630.654770 525 414 566 475 379 360
44.202891 1329703630.665342 520 413 564 428 375 364
44.244640 1329703630.671478 516 412 564 374 370 367
44.244640 1329703630.679440 519 412 565 324 366 369
44.288492 1329703630.687861 521 414 565 277 364 366
44.288492 1329703630.696431 521 417 566 236 364 365
44.328481 1329703630.704526 523 419 567 202 362 365
44.328481 1329703630.713050 526 421 567 172 359 365
44.364357 1329703630.721334 528 424 569 146 358 363
44.364357 1329703630.729464 532 432 572 125 361 359
44.404571 1329703630.737462 535 439 577 110 368 353
44.404571 1329703630.746398 537 441 581 115 372 350
44.445907 1329703630.754771 537 445 585 133 370 353
44.445907 1329703630.762868 538 454 591 156 372 359
44.489906 1329703630.771252 537 463 594 182 374 365
44.489906 1329703630.779477 535 467 597 210 372 372
44.519736 1329703630.787317 537 475 598 238 370 378
44.519736 1329703630.796161 536 484 599 267 369 383
44.562455 1329703630.804747 532 488 601 292 368 390
44.562455 1329703630.813061 530 489 602 314 367 397
44.605444 1329703630.821149 534 490 602 329 366 399
44.605444 1329703630.829565 533 495 603 340 366 396
44.646005 1329703630.837678 530 499 604 349 365 393
44.646005 1329703630.846303 524 497 605 356 363 391
44.686705 1329703630.860311 521 491 606 360 367 391
44.686705 1329703630.863151 521 494 606 360 371 394
44.719927 1329703630.871350 521 499 605 361 374 393
44.719927 1329703630.880019 516 500 605 362 375 391
44.761776 1329703630.887402 513 498 606 363 376 388
44.761776 1329703630.895859 512 500 607 365 373 385
44.803159 1329703630.910005 514 500 606 368 369 381
44.803159 1329703630.912407 513 500 607 372 364 376
44.845398 1329703630.920656 510 498 608 373 365 372
44.845398 1329703630.929049 504 496 607 375 368 371
44.886958 1329703630.937031 502 498 605 375 365 370
44.886958 1329703630.945765 503 496 604 372 363 370
44.925819 1329703630.954093 508 492 604 374 368 368
44.925819 1329703630.962653 503 495 604 374 371 368
