imu_t vicon_t accel_x accel_y accel_z gyro_x gyro_y gyro_z
0.009748 1329703794.687979 501 498 604 376 371 373
0.009748 1329703794.748321 503 496 603 378 368 377
0.009748 1329703794.779660 506 493 602 380 369 378
0.009748 1329703794.788198 509 496 602 383 368 377
0.009748 1329703794.795881 508 496 603 383 367 374
0.009748 1329703794.804656 506 496 603 377 371 370
0.009748 1329703794.812856 503 493 603 374 371 370
0.009748 1329703794.821304 504 492 602 377 372 371
0.009748 1329703794.839864 507 494 603 378 376 370
0.009748 1329703794.846455 507 495 603 374 381 365
0.009748 1329703794.854459 504 494 604 372 382 363
0.009748 1329703794.862743 504 494 603 370 383 365
0.009748 1329703794.871267 505 492 603 369 381 366
0.009748 1329703794.888005 505 493 603 370 379 366
0.009748 1329703794.896377 507 494 605 371 379 366
0.009748 1329703794.904813 508 493 605 370 379 363
0.009748 1329703794.912473 507 493 605 368 379 362
0.009748 1329703794.921129 508 493 606 370 384 362
0.009748 1329703794.929633 508 493 606 370 387 363
0.009748 1329703794.937661 504 491 606 367 385 363
0.009748 1329703794.946377 505 492 607 366 382 366
0.009748 1329703794.954700 509 493 608 371 380 368
0.009748 1329703794.962803 513 493 609 372 381 369
0.009748 1329703794.971984 510 495 610 370 381 367
0.009748 1329703794.979720 511 496 608 368 379 367
0.009748 1329703795.000983 511 494 607 368 378 367
0.009748 1329703795.005181 512 493 607 370 377 367
0.009748 1329703795.012692 512 496 608 372 376 366
0.009748 1329703795.021397 511 498 607 373 375 366
0.009748 1329703795.029636 511 497 607 374 372 367
0.009748 1329703795.037753 513 496 607 373 372 364
0.009748 1329703795.046062 514 497 608 374 373 365
0.009748 1329703795.054533 513 497 608 374 368 365
0.009748 1329703795.062917 512 498 608 373 368 366
0.009748 1329703795.070861 515 498 605 374 368 370
0.009748 1329703795.079572 515 501 604 376 369 368
0.009748 1329703795.087541 513 504 603 381 373 368
0.009748 1329703795.096072 511 505 600 385 376 368
0.009748 1329703795.114966 512 505 595 389 379 368
0.009748 1329703795.121001 511 506 593 387 383 365
0.009748 1329703795.129343 514 507 594 384 386 360
0.009748 1329703795.137571 513 506 595 386 388 353
0.009748 1329703795.145966 514 507 596 388 387 350
0.009748 1329703795.154286 514 504 594 388 391 349
0.009748 1329703795.169566 517 512 595 379 392 340
0.009748 1329703795.172391 513 504 595 370 391 335
0.009748 1329703795.179409 508 507 601 364 390 338
0.009748 1329703795.187750 512 511 604 362 392 337
0.009748 1329703795.195868 518 510 606 362 394 338
0.009748 1329703795.204404 520 500 607 366 395 343
0.009748 1329703795.212442 517 498 610 382 393 353
0.009748 1329703795.225093 517 498 608 396 390 363
0.009748 1329703795.229304 522 499 611 408 394 371
0.009748 1329703795.237495 520 496 608 413 399 375
0.009748 1329703795.246006 516 495 608 399 395 372
0.009748 1329703795.254251 515 495 609 387 391 363
0.009748 1329703795.263824 517 491 605 374 390 359
0.009748 1329703795.270789 510 487 607 362 397 360
0.009748 1329703795.279065 517 495 611 356 406 365
0.009748 1329703795.287539 520 500 615 350 404 368
0.009748 1329703795.295837 529 499 618 341 395 365
0.009748 1329703795.303921 522 496 621 342 386 376
0.009748 1329703795.312171 521 493 623 344 376 383
0.009748 1329703795.321159 522 492 622 349 359 381
0.009748 1329703795.328959 519 494 621 359 343 379
0.009748 1329703795.337508 519 495 620 371 328 381
0.053338 1329703795.345898 517 498 617 382 314 378
0.053338 1329703795.353984 515 501 615 390 304 373
0.053338 1329703795.362265 516 500 612 396 303 372
0.053338 1329703795.370777 508 502 605 374 376 370
0.086534 1329703795.378867 508 502 605 374 376 370
0.086534 1329703795.387329 508 502 605 374 377 370
0.127865 1329703795.395737 508 502 605 374 377 370
0.127865 1329703795.403977 508 502 605 374 376 369
0.169927 1329703795.412216 508 502 606 374 376 372
0.169927 1329703795.425282 508 502 606 374 376 370
0.211464 1329703795.428882 508 502 606 374 376 370
0.211464 1329703795.437600 508 502 605 374 376 371
0.266099 1329703795.445828 508 502 606 374 377 370
0.266099 1329703795.454179 508 502 605 376 376 370
0.286541 1329703795.462139 508 502 605 374 376 370
0.286541 1329703795.475894 508 502 605 374 375 370
0.327987 1329703795.490890 508 502 605 375 376 371
0.327987 1329703795.514324 508 502 605 374 377 371
0.380056 1329703795.528592 508 502 605 375 375 370
0.380056 1329703795.531535 507 503 605 374 376 371
0.411115 1329703795.537053 508 502 605 373 376 370
0.411115 1329703795.549049 508 502 605 374 376 371
0.453011 1329703795.553812 508 502 605 375 376 370
0.453011 1329703795.562376 508 502 605 375 377 371
0.490153 1329703795.570610 508 502 605 375 376 370
0.490153 1329703795.578727 508 502 605 374 375 371
0.528921 1329703795.598187 508 502 605 375 377 370
0.528921 1329703795.612669 508 502 605 374 376 369
0.569045 1329703795.620815 508 502 605 374 376 370
0.569045 1329703795.628803 508 502 606 374 376 371
0.610983 1329703795.637355 508 502 605 374 376 370
0.610983 1329703795.645430 508 502 605 374 376 371
0.652685 1329703795.653299 508 502 605 375 376 370
0.652685 1329703795.661785 508 502 605 375 376 371
0.690375 1329703795.670426 508 502 605 375 376 369
0.690375 1329703795.678591 508 502 605 374 376 371
0.727429 1329703795.687198 508 502 605 374 375 370
0.727429 1329703795.696102 508 502 605 374 375 370
0.779373 1329703795.703274 508 502 605 374 376 371
0.779373 1329703795.712038 508 502 605 374 377 370
0.814331 1329703795.726684 508 502 605 375 377 371
0.814331 1329703795.740512 507 502 605 374 376 370
0.863263 1329703795.764152 508 502 606 375 376 370
0.863263 1329703795.776331 508 502 605 376 376 369
0.893937 1329703795.781115 508 502 605 374 377 371
0.893937 1329703795.787040 508 502 605 374 376 370
0.968428 1329703795.795293 508 502 605 374 376 369
0.968428 1329703795.803408 508 502 605 374 376 371
1.029349 1329703795.811818 508 502 605 374 376 370
1.029349 1329703795.820473 508 502 605 374 376 370
1.052112 1329703795.828444 508 502 605 375 376 370
1.052112 1329703795.837012 508 502 605 375 376 371
1.093574 1329703795.845218 507 502 605 374 376 370
1.093574 1329703795.859537 508 502 605 374 376 371
1.127584 1329703795.862502 508 502 606 374 375 371
1.127584 1329703795.870426 508 502 606 375 376 370
1.168389 1329703795.878626 508 502 605 374 375 370
1.168389 1329703795.886956 508 502 605 374 376 370
1.210320 1329703795.895159 508 502 605 374 376 370
1.210320 1329703795.903306 508 502 605 374 376 370
1.251973 1329703795.911890 508 502 605 373 375 370
1.251973 1329703795.920664 508 502 605 374 376 370
1.293649 1329703795.928359 508 502 605 375 376 370
1.293649 1329703795.936747 508 502 606 373 376 370
1.328011 1329703795.945207 508 502 605 374 376 370
1.328011 1329703795.953152 508 502 606 374 376 369
1.373609 1329703795.961962 508 502 605 374 376 370
1.373609 1329703795.970118 508 502 605 374 377 370
1.409904 1329703795.978544 508 502 605 375 376 371
1.409904 1329703795.986904 508 502 605 375 376 370
1.451652 1329703795.995114 508 502 605 374 375 370
1.451652 1329703796.003038 508 502 605 374 377 370
1.493359 1329703796.011813 508 502 605 374 376 370
1.493359 1329703796.020090 508 502 605 375 376 371
1.538177 1329703796.028580 508 502 605 375 376 371
1.538177 1329703796.036812 508 502 605 374 376 370
1.584586 1329703796.044983 508 502 605 374 376 371
1.584586 1329703796.053644 508 502 605 374 376 370
1.607754 1329703796.061880 508 502 605 373 376 371
1.607754 1329703796.070084 508 502 606 374 376 371
1.652683 1329703796.079168 508 502 605 374 377 370
1.652683 1329703796.086882 508 502 605 374 376 371
1.693618 1329703796.095407 508 502 605 374 376 370
1.693618 1329703796.108554 508 502 605 375 377 370
1.726236 1329703796.111976 508 502 605 375 376 370
1.726236 1329703796.120040 508 502 605 374 376 370
1.768301 1329703796.128265 508 502 605 374 376 371
1.768301 1329703796.136781 508 502 605 374 376 371
1.808322 1329703796.144817 508 502 605 374 376 371
1.808322 1329703796.152833 508 502 605 375 376 371
1.851705 1329703796.161685 508 502 605 374 376 370
1.851705 1329703796.169942 508 502 605 375 376 370
1.893003 1329703796.178151 508 502 605 375 377 370
1.893003 1329703796.186550 508 502 605 374 376 370
1.926688 1329703796.194692 508 502 605 374 376 370
1.926688 1329703796.203025 508 502 605 374 376 370
1.968250 1329703796.211649 508 502 605 374 377 370
1.968250 1329703796.220045 507 502 605 374 376 370
2.009638 1329703796.228273 508 502 605 374 376 371
2.009638 1329703796.236750 508 502 605 374 375 370
2.051315 1329703796.245076 508 502 605 374 375 370
2.051315 1329703796.258277 508 502 605 374 376 370
2.093029 1329703796.272985 508 502 605 373 376 370
2.093029 1329703796.296330 508 502 605 374 376 371
2.126352 1329703796.319427 508 502 605 374 375 370
2.126352 1329703796.342630 508 502 605 375 376 371
2.168392 1329703796.366272 508 502 605 374 376 370
2.168392 1329703796.379836 508 502 605 374 377 370
2.209751 1329703796.386671 508 502 605 374 376 371
2.209751 1329703796.394939 508 502 605 374 376 371
2.255591 1329703796.403295 508 502 606 374 376 371
2.255591 1329703796.411432 508 502 605 374 376 370
2.293177 1329703796.419942 508 502 606 373 376 370
2.293177 1329703796.428727 508 502 606 375 376 371
2.340204 1329703796.437611 508 502 603 374 376 370
2.340204 1329703796.444840 508 502 604 374 376 371
2.367829 1329703796.453162 508 502 604 374 375 370
2.367829 1329703796.461291 508 502 604 373 376 370
2.414214 1329703796.469928 508 502 604 374 376 370
2.414214 1329703796.478030 508 502 605 374 375 370
2.463102 1329703796.486663 508 502 605 374 377 370
2.463102 1329703796.494734 508 502 606 374 376 370
2.493774 1329703796.503192 508 502 605 375 375 370
2.493774 1329703796.511262 508 502 605 375 376 370
2.534000 1329703796.519814 508 502 605 374 376 370
2.534000 1329703796.527821 508 502 605 374 376 371
2.569280 1329703796.543148 508 502 605 375 377 370
2.569280 1329703796.545758 508 502 606 375 377 370
2.610079 1329703796.553137 507 502 605 374 376 371
2.650609 1329703796.561368 508 502 605 374 376 370
2.650609 1329703796.569729 508 502 605 375 376 371
2.692884 1329703796.577916 508 502 605 374 376 370
2.692884 1329703796.586671 508 502 605 373 377 370
2.733691 1329703796.594557 508 502 605 374 376 371
2.733691 1329703796.603333 508 502 605 374 375 370
2.768896 1329703796.611100 508 502 605 374 375 371
2.768896 1329703796.620010 508 502 604 373 376 371
2.808306 1329703796.627906 508 502 605 374 377 371
2.808306 1329703796.636690 508 502 605 375 376 370
2.850071 1329703796.658794 508 502 606 374 377 371
2.850071 1329703796.661619 508 502 605 374 375 371
2.892843 1329703796.669576 508 502 605 375 375 371
2.892843 1329703796.678174 508 502 605 375 376 370
2.933497 1329703796.685971 508 502 605 374 377 370
2.933497 1329703796.694671 508 502 605 374 376 370
2.976616 1329703796.703168 508 502 605 374 377 371
2.976616 1329703796.711239 508 502 605 374 376 370
3.008063 1329703796.719464 508 502 606 374 376 371
3.008063 1329703796.727838 508 502 605 375 377 370
3.049905 1329703796.736056 508 502 605 374 376 370
3.049905 1329703796.744576 508 502 605 374 377 370
3.091691 1329703796.752874 508 502 605 374 378 370
3.091691 1329703796.771997 508 503 605 375 376 370
3.134623 1329703796.786237 508 502 605 374 376 370
3.134623 1329703796.794380 508 502 605 374 375 372
3.190255 1329703796.802878 508 502 606 375 377 370
3.190255 1329703796.811097 508 502 605 374 375 370
3.207945 1329703796.819532 508 502 605 373 376 370
3.207945 1329703796.827989 508 502 606 374 376 371
3.249484 1329703796.835854 508 502 605 374 377 371
3.249484 1329703796.844556 508 502 605 374 376 370
3.298998 1329703796.852568 508 502 605 375 376 371
3.298998 1329703796.861188 508 502 605 373 376 370
3.332840 1329703796.869753 508 502 605 374 376 371
3.332840 1329703796.882228 508 502 605 374 377 370
3.374604 1329703796.888242 508 502 605 375 376 370
3.374604 1329703796.900879 508 502 605 374 376 371
3.407656 1329703796.903319 508 502 605 375 377 371
3.407656 1329703796.910887 508 502 605 374 375 371
3.450130 1329703796.921038 508 502 605 374 376 371
3.450130 1329703796.927669 508 502 605 374 376 370
3.490781 1329703796.936080 507 502 605 374 376 370
3.490781 1329703796.944662 508 502 605 374 376 370
3.532997 1329703796.952611 508 502 605 376 376 370
3.532997 1329703796.961461 508 502 605 375 377 371
3.574267 1329703796.969316 508 502 605 374 375 370
3.574267 1329703796.978284 508 502 605 375 376 371
3.607354 1329703796.990430 507 502 606 374 376 370
3.607354 1329703796.994121 508 502 605 375 376 370
3.648968 1329703797.002616 508 502 605 375 376 370
3.648968 1329703797.012909 508 503 605 374 376 371
3.690472 1329703797.027927 507 502 606 374 376 370
3.690472 1329703797.042719 508 502 605 374 376 371
3.732173 1329703797.074970 508 502 606 374 375 370
3.732173 1329703797.086356 508 502 605 374 376 370
3.773915 1329703797.094526 508 502 606 374 377 369
3.773915 1329703797.102693 507 502 605 374 376 371
3.807340 1329703797.110845 507 502 605 374 376 370
3.807340 1329703797.121771 508 502 604 375 376 370
3.848407 1329703797.136538 508 502 605 373 377 370
3.848407 1329703797.149117 508 502 605 374 376 370
3.890564 1329703797.154465 508 502 605 373 376 371
3.890564 1329703797.161190 507 502 605 374 377 371
3.931831 1329703797.169216 507 502 605 373 376 370
3.931831 1329703797.177676 508 502 605 374 376 371
3.973456 1329703797.197936 508 502 605 373 375 369
3.973456 1329703797.202726 509 502 605 375 376 371
4.006995 1329703797.211008 508 502 606 374 376 370
4.006995 1329703797.219267 508 502 605 375 376 370
4.048359 1329703797.228151 507 503 605 375 376 371
4.048359 1329703797.236003 508 502 605 375 376 371
4.086382 1329703797.244279 509 502 605 374 376 371
4.086382 1329703797.252358 508 502 605 374 376 371
4.128430 1329703797.260732 508 502 605 374 376 370
4.128430 1329703797.268959 507 502 605 374 376 370
4.173636 1329703797.277383 507 502 605 375 377 369
4.173636 1329703797.285965 508 502 605 374 376 370
4.206377 1329703797.293945 508 502 606 375 376 370
4.206377 1329703797.304247 508 502 605 374 376 370
4.248430 1329703797.310830 508 502 605 375 375 371
4.248430 1329703797.318968 508 502 605 374 376 371
4.290062 1329703797.326929 507 502 604 374 376 370
4.290062 1329703797.335741 508 502 604 375 376 370
4.331310 1329703797.344966 508 502 605 373 377 371
4.331310 1329703797.352873 508 502 605 373 376 370
4.373239 1329703797.360537 508 502 605 374 376 370
4.373239 1329703797.368748 507 502 605 375 376 370
4.406222 1329703797.377831 507 502 605 374 376 371
4.406222 1329703797.385661 508 502 605 374 376 370
4.448167 1329703797.394256 508 502 605 374 375 371
4.448167 1329703797.403365 508 502 605 375 375 371
4.489517 1329703797.410783 508 502 605 374 375 370
4.489517 1329703797.418452 507 502 605 374 375 371
4.531116 1329703797.427777 507 502 605 374 375 371
4.531116 1329703797.435178 508 503 605 374 377 370
4.573070 1329703797.444253 508 502 605 375 376 369
4.573070 1329703797.451742 508 502 605 374 376 370
4.606342 1329703797.460036 508 502 605 375 375 370
4.606342 1329703797.468605 508 502 605 375 376 371
4.648178 1329703797.476883 508 502 606 375 376 370
4.648178 1329703797.485149 508 502 604 374 375 370
4.689544 1329703797.494301 508 502 605 373 377 370
4.689544 1329703797.503758 507 502 605 375 375 370
4.731371 1329703797.509940 508 502 605 374 376 370
4.731371 1329703797.518399 509 502 606 375 375 371
4.772752 1329703797.526445 508 502 605 374 376 369
4.772752 1329703797.534954 508 502 606 374 375 370
4.814133 1329703797.543186 507 502 605 374 375 371
4.814133 1329703797.556133 508 502 605 375 376 371
4.847394 1329703797.561509 508 502 606 373 376 370
4.847394 1329703797.568134 508 502 605 374 376 371
4.889484 1329703797.576613 507 502 605 373 376 370
4.889484 1329703797.584931 508 502 605 375 376 370
4.931237 1329703797.593302 508 502 606 375 376 370
4.931237 1329703797.601217 508 502 605 375 376 370
4.972680 1329703797.611356 507 502 605 375 376 370
4.972680 1329703797.618085 508 502 605 374 376 370
5.014040 1329703797.626732 508 502 605 375 377 370
5.014040 1329703797.634732 508 502 605 374 376 370
5.047390 1329703797.643314 508 502 605 375 376 370
5.047390 1329703797.651401 508 502 605 374 375 370
5.088720 1329703797.659881 507 502 605 374 377 370
5.088720 1329703797.668441 508 502 605 374 376 370
5.130445 1329703797.676663 508 502 605 374 376 370
5.130445 1329703797.684813 508 502 605 374 376 371
5.172826 1329703797.693189 508 503 605 373 377 370
5.172826 1329703797.701165 508 502 606 374 377 370
5.213992 1329703797.711516 508 502 605 374 376 370
5.213992 1329703797.718232 507 503 605 374 377 371
5.246923 1329703797.726728 508 502 605 374 376 370
5.246923 1329703797.735024 509 503 605 375 376 370
5.288898 1329703797.743014 508 501 606 375 375 369
5.288898 1329703797.751185 506 502 605 375 379 371
5.330308 1329703797.760774 503 501 603 375 388 370
5.330308 1329703797.768487 506 503 607 376 392 371
5.372008 1329703797.776626 515 504 604 376 396 372
5.372008 1329703797.784880 515 504 607 379 411 375
5.413813 1329703797.793129 511 505 605 379 413 377
5.413813 1329703797.801075 516 509 606 380 419 381
5.448285 1329703797.809682 512 513 610 383 424 378
5.448285 1329703797.818064 515 517 614 394 429 376
5.488336 1329703797.826603 519 513 622 400 430 378
5.488336 1329703797.834692 520 509 631 397 418 376
5.529906 1329703797.842978 521 511 635 396 402 373
5.529906 1329703797.850966 524 511 636 396 387 374
5.572137 1329703797.869572 525 509 635 390 372 375
5.572137 1329703797.876241 524 510 633 385 361 376
5.613283 1329703797.886548 524 513 629 379 351 375
5.613283 1329703797.892717 523 515 625 378 347 375
5.646847 1329703797.901293 522 514 621 374 351 374
5.646847 1329703797.925205 523 513 618 373 356 374
5.692853 1329703797.927782 521 511 614 372 359 374
5.692853 1329703797.934648 518 504 607 376 357 375
5.730420 1329703797.942891 518 506 605 387 356 377
5.730420 1329703797.951302 517 503 604 403 353 375
5.772847 1329703797.959448 520 502 604 410 344 375
5.772847 1329703797.967444 519 501 605 404 339 373
5.806927 1329703797.980284 518 503 605 395 348 371
5.806927 1329703797.984507 518 500 606 387 361 370
5.847047 1329703797.992690 518 496 605 377 370 366
5.847047 1329703798.001206 519 495 604 362 379 361
5.889418 1329703798.009577 517 498 604 346 393 362
5.889418 1329703798.017614 518 497 604 337 412 363
5.930506 1329703798.033941 521 493 605 325 419 365
5.930506 1329703798.036378 519 493 605 317 416 361
5.968108 1329703798.042581 520 496 605 308 413 359
5.968108 1329703798.051015 520 500 604 309 411 358
6.020511 1329703798.059541 524 501 604 316 408 358
6.020511 1329703798.067658 525 500 603 323 399 354
6.047262 1329703798.076022 525 502 601 329 390 350
6.047262 1329703798.084632 524 503 600 341 388 346
6.088886 1329703798.092617 525 505 599 359 387 345
6.088886 1329703798.101011 524 503 599 370 378 340
6.129913 1329703798.109408 524 504 597 377 367 337
6.129913 1329703798.117453 522 503 596 384 362 336
6.172428 1329703798.125973 521 501 593 393 364 337
6.172428 1329703798.137809 519 497 594 399 366 337
6.213725 1329703798.142588 517 497 593 400 367 337
6.213725 1329703798.151003 517 496 592 397 369 341
6.257514 1329703798.159405 513 495 591 398 372 344
6.257514 1329703798.167456 506 493 593 396 375 349
6.289053 1329703798.175838 498 482 591 376 393 357
6.289053 1329703798.185092 497 481 592 372 390 372
6.329798 1329703798.192736 504 485 592 369 393 382
6.329798 1329703798.200872 511 496 596 374 392 388
6.380174 1329703798.209375 521 498 597 375 388 387
6.380174 1329703798.217379 526 501 598 375 379 379
6.412521 1329703798.225785 523 503 598 375 373 371
6.412521 1329703798.235191 524 502 597 376 375 365
6.459443 1329703798.242637 523 500 599 375 381 362
6.459443 1329703798.251620 518 500 602 374 387 360
6.489328 1329703798.259234 517 498 603 375 388 358
6.489328 1329703798.267883 518 497 603 379 384 358
6.530416 1329703798.275817 515 498 604 384 377 362
6.530416 1329703798.284245 519 497 604 387 375 364
6.572342 1329703798.292360 520 498 602 386 376 364
6.572342 1329703798.300350 520 498 602 382 375 370
6.614258 1329703798.309182 519 497 603 379 378 372
6.614258 1329703798.317218 526 502 601 377 379 368
6.647702 1329703798.325445 517 502 604 379 375 367
6.647702 1329703798.334090 516 496 605 382 373 368
6.689267 1329703798.342296 520 495 605 383 367 367
6.689267 1329703798.350429 518 503 606 384 366 370
6.730255 1329703798.359050 516 504 605 384 368 371
6.730255 1329703798.367196 516 502 603 378 371 371
6.776658 1329703798.375233 517 496 602 372 374 365
6.776658 1329703798.383816 517 498 602 367 380 365
6.818135 1329703798.394033 518 502 602 367 384 369
6.818135 1329703798.400299 520 503 602 367 386 371
6.849774 1329703798.408863 518 503 603 369 388 371
6.849774 1329703798.417126 520 501 603 372 386 370
6.887979 1329703798.425400 522 498 605 377 378 368
6.887979 1329703798.433945 520 501 606 385 370 368
6.928557 1329703798.442756 523 503 606 389 367 372
6.928557 1329703798.450309 523 502 607 386 367 370
6.972317 1329703798.458793 521 499 605 381 366 367
6.972317 1329703798.467118 519 500 605 381 365 369
7.013376 1329703798.475307 519 502 603 379 368 370
7.013376 1329703798.483781 520 502 603 378 371 370
7.047081 1329703798.492141 518 503 604 378 373 368
7.047081 1329703798.500163 519 502 605 376 376 367
7.088318 1329703798.508747 519 499 605 375 379 365
7.088318 1329703798.516683 518 499 607 378 381 368
7.129927 1329703798.525253 519 502 608 382 379 370
7.129927 1329703798.533736 518 502 608 386 374 370
7.172044 1329703798.542254 518 499 606 384 372 370
7.172044 1329703798.559918 519 497 605 383 372 369
7.213295 1329703798.566842 517 499 605 382 374 371
7.213295 1329703798.575108 515 501 605 379 376 372
7.260101 1329703798.583280 515 501 606 379 377 370
7.260101 1329703798.592147 514 500 607 379 380 368
7.288553 1329703798.600792 513 499 608 376 380 368
7.288553 1329703798.608492 510 498 609 374 376 370
7.333847 1329703798.616943 508 501 609 374 374 370
7.333847 1329703798.625379 507 502 610 373 375 368
7.371222 1329703798.633297 504 499 613 373 374 367
7.371222 1329703798.641885 503 499 613 372 370 368
7.413700 1329703798.650467 500 501 613 374 368 368
7.413700 1329703798.658627 498 502 614 372 370 370
7.454817 1329703798.666723 496 499 614 372 368 368
7.454817 1329703798.675005 497 497 614 368 368 370
7.488074 1329703798.683365 498 499 613 368 366 372
7.488074 1329703798.691919 499 500 613 370 367 373
7.529799 1329703798.700605 497 504 613 372 366 371
7.529799 1329703798.708307 498 503 613 374 364 371
7.571422 1329703798.716930 498 502 611 378 363 368
7.571422 1329703798.725317 500 507 610 378 366 368
7.613290 1329703798.733348 501 504 608 379 370 365
7.613290 1329703798.741868 500 498 607 381 371 365
7.654689 1329703798.750461 509 498 606 382 373 369
7.654689 1329703798.761317 511 499 607 378 374 368
7.687567 1329703798.766670 511 500 606 373 369 364
7.687567 1329703798.775092 522 501 603 367 370 365
7.729305 1329703798.783253 525 494 605 358 380 358
7.729305 1329703798.792051 527 494 606 351 381 358
7.770710 1329703798.803453 532 492 606 349 376 356
7.770710 1329703798.809750 534 501 604 341 378 355
7.812226 1329703798.821332 535 506 604 319 376 352
7.812226 1329703798.825148 538 508 604 290 378 346
7.861573 1329703798.833159 540 512 604 261 384 340
7.861573 1329703798.841911 543 514 606 226 379 335
7.887260 1329703798.863352 543 508 608 197 371 332
7.887260 1329703798.866626 546 508 605 176 369 335
7.929016 1329703798.874915 541 518 601 154 367 342
7.929016 1329703798.883370 538 526 596 134 364 348
7.970108 1329703798.891368 537 534 590 123 365 351
7.970108 1329703798.900475 536 542 586 123 369 354
8.011579 1329703798.908596 533 546 583 128 367 354
8.011579 1329703798.916536 530 552 578 140 362 360
8.060953 1329703798.924868 525 562 570 157 360 366
8.060953 1329703798.933477 524 568 563 180 358 370
8.090131 1329703798.941342 522 571 558 210 357 374
8.090131 1329703798.950093 518 576 554 242 357 379
8.130582 1329703798.958211 517 578 551 279 353 381
8.130582 1329703798.966318 515 583 549 308 352 381
8.168969 1329703798.974940 509 586 546 334 353 380
8.168969 1329703798.983322 508 587 545 360 359 381
8.211254 1329703798.991276 508 589 546 389 369 383
8.211254 1329703799.000029 510 595 548 420 374 387
8.252474 1329703799.008295 514 598 552 455 378 389
8.252474 1329703799.016161 515 594 557 499 377 389
8.286297 1329703799.024940 518 588 563 545 379 390
8.286297 1329703799.033023 521 587 567 580 383 392
8.328353 1329703799.041388 522 580 573 598 386 391
8.328353 1329703799.049978 522 565 580 611 388 392
8.388547 1329703799.058350 530 556 587 623 384 393
8.388547 1329703799.066256 531 552 593 631 380 395
8.411578 1329703799.074631 533 545 599 631 378 393
8.411578 1329703799.083176 540 535 602 620 374 393
8.446972 1329703799.091197 538 529 605 594 372 393
8.446972 1329703799.099939 539 525 608 560 372 389
8.486493 1329703799.108268 542 517 608 525 368 383
8.486493 1329703799.117007 546 512 610 490 363 381
8.528028 1329703799.124517 544 511 610 461 362 376
8.528028 1329703799.133363 541 511 609 442 357 372
8.569745 1329703799.141086 536 513 606 428 349 368
8.569745 1329703799.149702 528 509 603 418 343 363
8.615501 1329703799.158054 521 502 600 411 347 359
8.615501 1329703799.166308 515 500 598 403 354 362
8.651000 1329703799.174649 514 504 596 394 362 365
8.651000 1329703799.183106 508 502 596 388 365 364
8.686283 1329703799.190988 502 500 599 387 373 361
8.686283 1329703799.199864 498 500 601 385 381 362
8.728744 1329703799.208852 499 494 603 386 379 368
8.728744 1329703799.216172 503 497 603 390 375 372
8.781763 1329703799.224457 502 505 602 394 375 371
8.781763 1329703799.232957 500 502 604 398 374 372
8.811821 1329703799.241300 503 494 605 402 369 373
8.811821 1329703799.249670 503 493 606 406 368 377
8.851585 1329703799.258043 509 499 606 406 373 378
8.851585 1329703799.266021 508 500 605 398 379 372
8.886740 1329703799.274541 505 495 604 390 375 371
8.886740 1329703799.283073 502 490 604 378 374 374
8.928302 1329703799.291087 502 491 605 369 377 376
8.928302 1329703799.299719 506 494 604 364 379 375
8.969957 1329703799.308086 505 493 603 361 376 373
8.969957 1329703799.321080 500 493 603 360 379 373
9.012103 1329703799.325342 499 495 603 362 384 372
9.012103 1329703799.332803 502 500 603 361 386 370
9.053119 1329703799.341343 501 499 604 359 389 370
9.053119 1329703799.349667 500 494 606 361 391 371
9.086830 1329703799.358082 502 494 607 367 389 374
9.086830 1329703799.366401 505 498 607 373 385 375
9.128230 1329703799.374390 506 501 607 378 380 373
9.128230 1329703799.382990 506 500 607 378 377 368
9.169937 1329703799.391294 507 500 608 373 377 366
9.169937 1329703799.399685 507 498 608 367 378 364
9.212744 1329703799.408094 507 496 609 362 377 363
9.212744 1329703799.416385 506 497 610 361 376 363
9.253545 1329703799.424449 507 499 609 367 373 367
9.253545 1329703799.432759 507 500 608 373 372 367
9.286626 1329703799.441179 507 501 607 375 371 368
9.286626 1329703799.449546 507 503 607 376 372 368
9.328057 1329703799.457982 506 502 607 379 374 368
9.328057 1329703799.466229 506 500 606 380 375 367
9.377229 1329703799.476873 506 498 606 379 374 366
9.377229 1329703799.482713 507 497 606 376 374 367
9.413415 1329703799.490930 506 498 604 374 376 366
9.413415 1329703799.499440 508 497 604 370 380 366
9.456386 1329703799.507780 509 493 605 368 384 367
9.456386 1329703799.516297 509 494 606 372 385 368
9.486757 1329703799.534532 509 496 606 378 380 368
9.486757 1329703799.540972 509 497 606 379 376 370
9.528097 1329703799.549068 511 497 605 379 375 370
9.528097 1329703799.557720 511 498 604 378 375 370
9.584908 1329703799.566067 511 500 604 374 376 368
9.584908 1329703799.574245 510 497 603 371 379 367
9.611389 1329703799.582328 510 497 605 373 380 368
9.611389 1329703799.590993 511 499 605 377 379 368
9.654170 1329703799.599178 510 499 606 377 380 369
9.654170 1329703799.607343 509 498 605 378 379 369
9.696991 1329703799.616205 508 499 605 375 380 368
9.696991 1329703799.624390 509 499 606 372 382 368
9.727791 1329703799.632764 508 499 606 372 380 369
9.727791 1329703799.641315 507 498 605 373 376 368
9.769478 1329703799.649118 505 498 605 375 378 369
9.769478 1329703799.657528 505 498 605 374 381 369
9.811177 1329703799.666148 503 498 605 375 383 370
9.811177 1329703799.674462 502 498 606 373 382 369
9.852725 1329703799.707603 503 500 607 369 382 367
9.852725 1329703799.709515 502 498 609 372 384 367
9.894401 1329703799.716099 501 499 608 376 383 368
9.894401 1329703799.724136 500 503 609 379 382 368
9.927707 1329703799.732456 500 505 610 377 383 366
9.927707 1329703799.740722 499 501 611 371 381 363
9.969237 1329703799.748946 500 494 610 368 376 363
9.969237 1329703799.769684 502 495 611 370 374 365
10.010614 1329703799.774049 500 499 613 379 380 368
10.010614 1329703799.782356 498 501 612 385 381 367
10.052892 1329703799.790738 498 500 611 384 375 364
10.052892 1329703799.799207 501 493 612 383 374 365
10.093459 1329703799.807046 504 492 613 384 377 368
10.093459 1329703799.815601 503 494 613 385 378 369
10.127670 1329703799.823613 499 499 611 379 371 368
10.127670 1329703799.832307 500 497 608 372 370 363
10.167917 1329703799.841226 508 495 610 374 372 365
10.167917 1329703799.848848 510 495 609 374 373 364
10.210596 1329703799.857447 511 498 608 363 374 359
10.210596 1329703799.865416 513 501 606 347 375 352
10.251791 1329703799.873745 512 501 605 335 373 350
10.251791 1329703799.882250 515 500 605 321 373 350
10.293471 1329703799.890689 522 499 603 308 374 348
10.293471 1329703799.898793 525 499 600 299 375 347
10.327714 1329703799.907703 529 505 597 286 373 347
10.327714 1329703799.925573 532 515 596 263 377 344
10.368347 1329703799.932030 535 520 595 233 380 338
10.368347 1329703799.940800 545 517 597 204 378 336
10.409984 1329703799.949007 549 516 598 186 380 339
10.409984 1329703799.957239 550 519 600 174 385 339
10.451718 1329703799.971145 549 524 598 170 385 347
10.451718 1329703799.973789 548 536 593 163 379 352
10.504820 1329703799.981896 542 547 591 146 382 351
10.504820 1329703799.990685 539 551 592 130 382 351
10.527126 1329703799.998971 537 555 590 135 375 355
10.527126 1329703800.007004 535 562 587 160 366 358
10.567385 1329703800.015263 528 570 580 185 355 359
10.567385 1329703800.023798 520 571 574 200 346 363
10.608842 1329703800.032073 515 573 567 213 340 371
10.608842 1329703800.040647 514 576 560 233 338 375
10.661183 1329703800.049046 515 581 556 269 334 381
10.661183 1329703800.057614 509 585 550 304 334 385
10.691770 1329703800.065257 509 589 546 334 339 384
10.691770 1329703800.077146 508 595 546 365 343 386
10.727905 1329703800.081938 503 597 547 400 347 383
10.727905 1329703800.090324 504 597 549 433 355 383
10.766835 1329703800.098950 506 596 552 470 365 384
10.766835 1329703800.106927 509 597 557 508 369 383
10.808842 1329703800.115170 511 593 562 545 373 383
10.808842 1329703800.125267 512 586 567 580 377 381
10.851021 1329703800.131823 512 576 573 612 379 378
10.851021 1329703800.140598 515 564 578 634 381 379
10.893126 1329703800.148729 519 558 585 648 386 382
10.893126 1329703800.157135 523 552 594 648 389 382
10.934290 1329703800.165203 529 541 601 634 384 379
10.934290 1329703800.183174 530 532 607 612 379 379
10.967211 1329703800.193917 533 522 611 584 375 377
10.967211 1329703800.199839 532 516 612 553 370 376
11.009137 1329703800.207032 530 515 613 521 364 372
11.009137 1329703800.214912 527 515 613 493 357 369
11.050798 1329703800.223279 530 510 610 468 354 367
11.050798 1329703800.232339 533 506 606 450 355 369
11.092536 1329703800.241846 531 506 603 439 356 370
11.092536 1329703800.248815 533 503 600 436 361 370
11.134433 1329703800.256770 532 499 597 436 368 372
11.134433 1329703800.264911 531 497 595 437 364 369
11.167138 1329703800.273275 519 495 595 436 361 368
11.167138 1329703800.281728 512 493 595 430 366 368
11.209580 1329703800.300328 517 495 595 419 374 367
11.209580 1329703800.307030 517 495 597 405 381 368
11.246997 1329703800.315267 506 492 599 395 378 371
11.246997 1329703800.323379 500 489 600 384 373 373
11.292800 1329703800.331549 496 489 601 370 380 372
11.292800 1329703800.340156 500 491 604 356 386 371
11.334614 1329703800.348171 504 491 604 350 383 368
11.334614 1329703800.360095 495 496 605 346 378 372
11.375785 1329703800.365324 491 497 606 343 371 378
11.375785 1329703800.373198 490 495 605 340 372 380
11.411918 1329703800.381777 497 499 605 344 374 379
11.411918 1329703800.389958 496 500 604 352 376 376
11.463769 1329703800.398199 490 501 606 358 379 379
11.463769 1329703800.416686 492 501 605 362 384 378
11.492070 1329703800.427606 496 502 604 367 387 376
11.492070 1329703800.431513 499 500 603 370 390 372
11.537773 1329703800.440179 499 497 604 374 394 372
11.537773 1329703800.448283 497 497 605 374 396 371
11.567794 1329703800.456395 499 503 606 370 394 370
11.567794 1329703800.465292 501 506 607 365 390 367
11.609668 1329703800.483705 500 503 608 359 385 367
11.609668 1329703800.490141 501 499 607 357 382 368
11.651025 1329703800.498220 502 499 607 362 380 368
11.651025 1329703800.506820 504 500 606 365 378 367
11.700975 1329703800.515183 504 503 605 369 377 366
11.700975 1329703800.524425 504 503 607 373 377 365
11.734197 1329703800.541814 503 502 607 378 379 365
11.734197 1329703800.552723 503 501 607 381 379 362
11.772519 1329703800.559273 505 500 607 380 376 363
11.772519 1329703800.565381 505 499 607 376 373 365
11.809444 1329703800.575693 506 498 606 376 374 367
11.809444 1329703800.581985 508 497 607 376 378 367
11.850832 1329703800.591153 508 497 608 376 378 368
11.850832 1329703800.604817 506 499 609 379 376 369
11.892222 1329703800.607923 504 502 608 378 375 370
11.892222 1329703800.615356 506 502 607 372 375 369
11.926049 1329703800.624263 507 499 607 369 373 368
11.926049 1329703800.632411 507 499 607 370 373 368
11.967205 1329703800.641036 507 500 606 369 373 367
11.967205 1329703800.648808 507 501 605 370 372 368
12.008775 1329703800.657511 508 501 604 371 373 368
12.008775 1329703800.665558 508 501 604 374 376 368
12.050608 1329703800.673743 510 499 605 376 378 369
12.050608 1329703800.682186 509 499 605 375 377 369
12.092565 1329703800.690555 510 500 605 378 373 370
12.092565 1329703800.703003 511 501 605 379 375 369
12.133960 1329703800.707008 511 501 605 376 376 367
12.133960 1329703800.715362 510 501 606 375 377 368
12.173213 1329703800.723609 510 501 606 374 376 368
12.173213 1329703800.732231 510 501 605 373 377 368
12.208835 1329703800.740534 510 500 605 370 379 367
12.208835 1329703800.755413 511 500 606 372 378 368
12.250565 1329703800.757857 510 500 606 377 375 369
12.250565 1329703800.765378 508 501 605 378 375 370
12.307149 1329703800.773635 509 500 604 377 378 370
12.307149 1329703800.782168 509 499 604 374 380 369
12.333848 1329703800.790681 509 499 603 372 379 370
12.333848 1329703800.798691 508 500 604 373 378 370
12.382193 1329703800.818326 508 500 604 373 377 369
12.382193 1329703800.823861 507 499 605 374 377 369
12.408692 1329703800.831619 504 499 606 374 377 371
12.408692 1329703800.840542 504 500 605 378 379 373
12.450332 1329703800.848590 504 500 606 380 381 373
12.450332 1329703800.864841 501 500 607 381 384 373
12.491603 1329703800.867511 498 499 609 378 385 373
12.491603 1329703800.874594 496 499 610 376 384 373
12.533678 1329703800.881844 492 500 611 372 384 374
12.533678 1329703800.891039 490 502 613 373 383 375
12.574832 1329703800.898801 486 504 615 371 381 372
12.574832 1329703800.907302 484 507 615 366 378 371
12.607430 1329703800.916153 483 506 615 364 375 371
12.607430 1329703800.924106 484 501 615 368 376 371
12.650450 1329703800.931977 483 501 614 375 375 373
12.650450 1329703800.940747 487 505 612 380 372 375
12.691748 1329703800.948784 491 506 611 380 369 374
12.691748 1329703800.965583 496 502 611 378 370 369
12.733221 1329703800.980106 497 499 610 382 371 365
12.733221 1329703800.992437 501 504 608 383 368 367
12.772719 1329703800.998812 505 506 605 382 366 362
12.772719 1329703801.007233 505 503 604 384 368 356
12.819209 1329703801.015269 505 504 602 389 366 354
12.819209 1329703801.023882 510 504 597 389 362 354
12.849543 1329703801.049875 516 501 594 383 363 350
12.849543 1329703801.064703 519 493 593 367 371 349
12.891168 1329703801.067331 521 487 593 353 376 353
12.891168 1329703801.074410 523 489 593 343 375 356
12.932993 1329703801.082440 528 499 592 324 377 357
12.932993 1329703801.090829 531 510 591 294 388 352
12.976370 1329703801.099175 537 512 594 262 397 349
12.976370 1329703801.115125 541 512 601 235 407 344
13.007629 1329703801.117843 543 513 605 214 409 346
13.007629 1329703801.132921 549 518 606 198 401 347
13.048810 1329703801.147474 550 525 602 174 398 345
13.048810 1329703801.150652 547 529 598 146 395 345
13.090842 1329703801.157311 542 530 599 127 398 348
13.090842 1329703801.165882 538 536 599 125 398 352
13.132534 1329703801.174174 538 542 597 138 384 355
13.132534 1329703801.194365 535 548 592 162 366 361
13.173574 1329703801.198979 532 558 586 189 358 368
13.173574 1329703801.207570 525 569 580 214 357 371
13.206926 1329703801.215411 520 574 577 233 358 371
13.206926 1329703801.224215 521 574 573 257 355 373
13.247856 1329703801.244109 519 575 569 284 351 378
13.247856 1329703801.249825 514 579 566 302 350 381
13.289460 1329703801.257421 511 581 561 312 355 382
13.289460 1329703801.265479 512 584 561 319 359 384
13.335159 1329703801.274103 511 589 560 334 363 383
13.335159 1329703801.282479 512 593 562 351 364 381
13.372589 1329703801.296845 513 594 562 369 367 379
13.372589 1329703801.300116 512 596 562 385 370 379
13.414602 1329703801.307266 513 594 564 405 376 377
13.414602 1329703801.315277 512 590 568 427 382 377
13.449113 1329703801.324070 514 590 571 449 382 379
13.449113 1329703801.332377 515 588 575 472 377 377
13.490232 1329703801.340266 514 586 577 492 374 378
13.490232 1329703801.349071 517 580 580 511 370 380
13.531892 1329703801.357354 517 575 583 533 364 382
13.531892 1329703801.365491 518 572 585 553 363 383
13.573477 1329703801.373664 520 565 587 566 363 381
13.573477 1329703801.382578 520 557 590 574 365 382
13.606837 1329703801.401175 527 553 592 574 364 380
13.606837 1329703801.408431 525 548 594 564 363 377
13.649846 1329703801.415611 526 538 597 554 361 376
13.649846 1329703801.424190 528 529 600 549 363 379
13.689964 1329703801.432154 528 524 599 544 368 381
13.689964 1329703801.440683 529 521 600 533 373 378
13.731334 1329703801.455909 530 515 602 519 377 377
13.731334 1329703801.459068 535 512 602 509 377 377
13.773018 1329703801.465221 532 515 603 494 369 375
13.773018 1329703801.473570 530 510 604 479 361 370
13.806425 1329703801.482121 529 499 603 465 356 361
13.806425 1329703801.490449 529 496 602 445 358 362
13.848221 1329703801.498472 529 499 601 427 360 365
13.848221 1329703801.511594 520 502 601 414 359 366
13.889621 1329703801.535375 519 496 600 410 352 359
13.889621 1329703801.538986 519 495 599 406 353 353
13.931856 1329703801.552980 509 498 598 398 361 348
13.931856 1329703801.557675 503 497 598 392 359 354
13.972896 1329703801.565502 505 494 598 388 351 362
13.972896 1329703801.584557 506 495 600 385 359 365
14.006801 1329703801.608639 504 497 602 376 369 364
14.006801 1329703801.622923 508 494 602 366 368 368
14.048500 1329703801.625998 503 490 601 360 364 366
14.048500 1329703801.632039 498 492 602 363 362 371
14.089940 1329703801.640445 500 497 601 369 363 369
14.089940 1329703801.648698 497 497 600 371 368 367
14.131832 1329703801.663611 489 493 600 368 367 371
14.131832 1329703801.666350 494 490 601 365 369 380
14.173225 1329703801.673321 492 495 600 361 381 380
14.173225 1329703801.681889 493 495 601 361 383 377
14.206797 1329703801.690288 491 492 604 363 384 379
14.206797 1329703801.698523 491 492 605 367 386 382
14.248773 1329703801.707248 495 496 606 369 392 382
14.248773 1329703801.715238 498 503 607 368 394 380
14.290077 1329703801.723575 500 502 607 369 390 377
14.290077 1329703801.731742 500 502 608 369 387 373
14.332134 1329703801.740277 497 499 610 366 386 370
14.332134 1329703801.748341 494 497 611 365 384 370
14.366477 1329703801.757759 494 499 610 366 377 373
14.366477 1329703801.765222 497 502 607 366 373 370
14.414316 1329703801.773356 496 504 604 360 378 368
14.414316 1329703801.781957 498 500 604 357 384 364
14.448030 1329703801.790135 496 496 607 359 385 366
14.448030 1329703801.798511 496 496 606 366 381 369
14.490388 1329703801.810189 497 499 604 370 378 370
14.490388 1329703801.815259 499 501 604 371 378 370
14.533009 1329703801.823219 499 503 604 373 378 369
14.533009 1329703801.831681 501 502 605 375 379 369
14.573055 1329703801.841047 503 500 606 378 376 368
14.573055 1329703801.848296 504 502 606 384 371 369
14.606611 1329703801.857740 502 500 606 388 368 368
14.606611 1329703801.864982 501 497 605 390 368 366
14.647766 1329703801.873721 501 497 603 387 370 365
14.647766 1329703801.881557 501 497 603 382 374 367
14.688718 1329703801.890193 501 496 604 376 380 368
14.688718 1329703801.898333 500 496 605 372 384 370
14.731375 1329703801.906963 501 499 605 370 385 371
14.731375 1329703801.918259 502 499 606 370 383 369
14.772958 1329703801.923402 505 497 606 372 381 369
14.772958 1329703801.931407 506 498 607 378 378 369
14.814711 1329703801.940152 506 499 606 380 379 368
14.814711 1329703801.948268 505 499 606 379 380 367
14.851827 1329703801.956705 506 499 607 376 380 367
14.851827 1329703801.971593 507 496 607 371 379 367
14.889612 1329703801.995042 507 495 606 370 375 368
14.889612 1329703802.007361 507 496 606 372 374 369
14.929494 1329703802.023388 507 497 606 373 375 369
14.929494 1329703802.031364 507 499 606 374 377 370
14.972687 1329703802.040190 507 499 605 374 378 370
14.972687 1329703802.059204 506 499 606 374 377 369
15.014090 1329703802.068854 506 498 605 374 375 370
15.014090 1329703802.073230 506 497 604 371 375 370
15.047594 1329703802.081297 504 497 604 369 376 370
15.047594 1329703802.089906 503 499 603 368 378 370
15.089759 1329703802.098619 501 501 604 366 381 369
15.089759 1329703802.106172 499 500 605 365 384 368
15.130676 1329703802.115157 496 498 606 368 383 368
15.130676 1329703802.122974 493 500 606 370 384 369
15.179889 1329703802.131113 492 502 606 375 385 370
15.179889 1329703802.139814 489 501 606 379 385 367
15.218581 1329703802.148545 485 502 607 382 385 365
15.218581 1329703802.156239 483 503 609 382 387 366
15.247555 1329703802.164919 483 500 610 378 388 367
15.247555 1329703802.176814 482 497 610 380 383 370
15.289731 1329703802.181187 483 497 608 383 377 372
15.289731 1329703802.189690 485 500 606 374 377 373
15.339886 1329703802.198204 489 496 606 356 376 373
15.339886 1329703802.206297 495 492 609 352 373 375
15.372333 1329703802.214818 493 495 609 361 372 379
15.372333 1329703802.222951 493 504 607 375 371 380
15.413537 1329703802.230956 496 512 603 378 373 379
15.413537 1329703802.239824 504 504 606 379 379 374
15.447184 1329703802.248337 503 501 607 384 384 367
15.447184 1329703802.256333 505 502 607 393 389 363
15.488839 1329703802.264770 508 508 605 390 387 360
15.488839 1329703802.272903 513 505 606 376 384 353
15.530396 1329703802.281189 516 493 608 372 385 352
15.530396 1329703802.289422 516 486 609 390 384 357
15.571630 1329703802.298110 519 493 607 405 380 366
15.571630 1329703802.306306 523 502 605 400 377 368
15.613334 1329703802.314587 528 505 602 374 380 363
15.613334 1329703802.323169 530 501 602 344 387 352
15.646913 1329703802.331045 535 499 605 314 391 348
15.646913 1329703802.339651 542 500 607 284 389 342
15.688553 1329703802.348217 544 503 605 253 387 334
15.688553 1329703802.356872 547 507 605 216 384 332
15.730080 1329703802.372071 545 511 604 176 381 329
15.730080 1329703802.375088 544 515 602 141 376 330
15.771734 1329703802.380922 545 517 603 119 376 334
15.771734 1329703802.389556 540 523 600 102 379 344
15.812993 1329703802.398179 543 532 594 91 376 351
15.812993 1329703802.406188 541 543 588 89 370 358
15.854225 1329703802.414550 533 554 585 94 365 362
15.854225 1329703802.422398 529 561 581 117 359 365
15.887282 1329703802.430741 528 563 576 156 347 367
15.887282 1329703802.439293 521 568 571 201 337 368
15.928792 1329703802.447997 514 574 566 239 335 376
15.928792 1329703802.456090 511 579 560 268 335 378
15.970668 1329703802.464273 509 584 554 295 330 377
15.970668 1329703802.472574 505 588 551 321 334 375
16.011701 1329703802.481192 505 591 550 350 344 374
16.011701 1329703802.489496 506 591 549 379 350 372
16.054132 1329703802.497553 503 592 551 408 355 374
16.054132 1329703802.505591 500 595 554 437 364 374
16.087356 1329703802.514154 500 596 557 467 372 375
16.087356 1329703802.532380 501 595 561 492 379 375
16.129135 1329703802.538968 503 589 565 513 384 374
16.129135 1329703802.547167 506 581 570 537 387 374
16.170980 1329703802.555762 510 576 574 561 387 374
16.170980 1329703802.563738 508 571 578 584 387 376
16.219429 1329703802.575073 510 564 583 604 388 378
16.219429 1329703802.596499 511 557 587 612 391 377
16.254280 1329703802.599035 516 551 592 616 392 378
16.254280 1329703802.605394 522 543 596 616 396 379
16.287530 1329703802.613892 524 533 600 607 395 374
16.287530 1329703802.621999 526 524 602 593 393 373
16.329194 1329703802.630197 525 516 603 572 391 372
16.329194 1329703802.639239 524 509 604 545 390 373
16.374904 1329703802.646857 525 506 605 517 389 372
16.374904 1329703802.655934 525 504 606 486 389 369
16.412475 1329703802.663990 525 500 607 458 384 365
16.412475 1329703802.672477 526 495 607 436 378 364
16.454087 1329703802.680378 525 495 606 416 373 367
16.454087 1329703802.688501 527 496 605 400 371 369
16.490843 1329703802.697005 530 494 604 398 373 369
16.490843 1329703802.704983 533 494 602 398 379 368
16.529236 1329703802.713737 535 495 599 397 381 368
16.529236 1329703802.721639 527 497 598 394 383 369
16.570871 1329703802.730251 525 498 598 393 380 368
16.570871 1329703802.738126 526 497 597 397 379 364
16.612618 1329703802.746580 529 499 597 397 381 360
16.612618 1329703802.754806 525 497 596 393 382 361
16.653529 1329703802.763435 518 493 597 384 379 364
16.653529 1329703802.771448 515 494 599 375 377 363
16.687787 1329703802.779701 520 496 599 363 380 355
16.687787 1329703802.795855 524 491 600 351 384 352
16.728990 1329703802.808805 515 486 603 341 384 361
16.728990 1329703802.821362 509 489 605 340 382 369
16.770854 1329703802.825081 512 494 603 346 386 372
16.770854 1329703802.835995 510 496 604 345 391 371
16.812790 1329703802.840137 511 496 606 346 397 373
16.812790 1329703802.850945 503 496 608 350 397 372
16.857999 1329703802.865190 504 497 610 354 394 368
16.857999 1329703802.887056 508 498 610 360 397 365
16.887741 1329703802.898046 508 500 612 366 394 368
16.887741 1329703802.903912 505 497 613 373 389 375
16.928679 1329703802.912402 508 502 612 374 390 379
16.928679 1329703802.920489 507 503 613 371 388 380
16.971694 1329703802.928997 512 499 613 370 385 381
16.971694 1329703802.937214 511 496 614 366 383 379
17.012345 1329703802.946120 511 497 614 358 381 382
17.012345 1329703802.953989 514 501 612 354 375 387
17.057905 1329703802.962383 513 501 611 357 369 389
17.057905 1329703802.970801 514 503 609 360 368 387
17.087441 1329703802.978952 516 506 608 360 368 382
17.087441 1329703802.987377 515 505 609 361 365 381
17.129123 1329703802.999125 514 505 608 362 365 379
17.129123 1329703803.004022 513 506 607 363 366 377
17.174087 1329703803.012633 511 507 606 368 367 374
17.174087 1329703803.021063 509 507 605 375 363 369
17.212095 1329703803.029412 510 506 604 383 362 366
17.212095 1329703803.037622 510 504 605 385 369 363
17.254609 1329703803.046517 509 497 607 385 373 361
17.254609 1329703803.054515 509 494 606 386 371 365
17.287994 1329703803.063258 512 498 605 387 368 371
17.287994 1329703803.071032 514 502 604 385 367 371
17.328832 1329703803.079522 515 499 605 381 371 371
17.328832 1329703803.099940 513 498 605 377 375 371
17.371284 1329703803.123494 515 497 606 375 376 369
17.371284 1329703803.135629 515 499 607 376 374 371
17.411924 1329703803.140414 515 502 606 378 374 371
17.411924 1329703803.146443 515 502 605 375 374 371
17.454485 1329703803.154582 515 501 604 370 376 370
17.454485 1329703803.170042 515 501 605 370 376 370
17.486710 1329703803.181889 516 502 606 374 374 371
17.486710 1329703803.188333 518 503 606 376 374 371
17.528960 1329703803.196715 518 502 606 376 376 370
17.528960 1329703803.204851 517 500 606 375 374 370
17.569929 1329703803.213499 517 500 605 376 373 372
17.569929 1329703803.221446 517 501 606 374 375 371
17.612113 1329703803.230209 516 501 607 371 376 372
17.612113 1329703803.237981 515 500 606 369 375 372
17.653445 1329703803.246804 515 500 605 372 375 374
17.653445 1329703803.254695 516 502 606 377 374 375
17.693182 1329703803.262955 517 502 605 376 374 372
17.693182 1329703803.272548 516 501 606 373 375 371
17.728541 1329703803.280015 515 501 605 370 373 370
17.728541 1329703803.287947 514 501 605 371 373 370
17.770236 1329703803.296500 514 500 604 375 373 372
17.770236 1329703803.304668 513 500 605 377 374 372
17.811976 1329703803.313059 511 501 605 375 376 372
17.811976 1329703803.321424 510 501 605 376 378 373
17.861336 1329703803.336136 509 501 604 378 376 373
17.861336 1329703803.350348 509 500 605 380 378 371
17.888065 1329703803.373545 507 501 606 378 382 370
17.888065 1329703803.385944 504 502 608 376 381 370
17.938935 1329703803.390553 501 501 609 375 384 370
17.938935 1329703803.396339 499 501 610 376 386 369
17.970319 1329703803.408240 500 501 610 372 387 368
17.970319 1329703803.413105 500 499 610 369 386 366
18.011593 1329703803.421211 500 496 614 370 382 366
18.011593 1329703803.430098 498 493 616 376 378 368
18.053337 1329703803.438088 495 494 616 381 374 374
18.053337 1329703803.446435 494 500 614 377 372 378
18.086984 1329703803.454455 499 501 616 368 374 378
18.086984 1329703803.463542 503 498 617 364 375 373
18.131420 1329703803.471211 504 497 616 366 372 372
18.131420 1329703803.480096 501 500 613 361 366 372
18.173297 1329703803.487828 502 503 610 351 364 371
18.173297 1329703803.496392 506 500 610 346 364 370
18.211193 1329703803.516603 504 497 609 359 359 372
18.211193 1329703803.521247 503 498 604 379 352 379
18.253330 1329703803.529917 507 504 601 387 359 385
18.253330 1329703803.538178 505 509 598 381 365 384
18.305639 1329703803.546671 505 509 596 373 364 378
18.305639 1329703803.554919 514 508 597 371 369 375
18.328182 1329703803.568010 528 501 598 371 381 369
18.328182 1329703803.571420 528 496 601 368 392 364
18.369331 1329703803.586474 524 500 602 369 394 365
18.369331 1329703803.600539 525 513 604 368 392 363
18.410807 1329703803.615055 530 516 604 362 389 354
18.410807 1329703803.621633 536 510 604 344 386 350
18.452253 1329703803.630081 540 508 605 320 380 345
18.452253 1329703803.638366 539 509 605 296 374 343
18.500283 1329703803.646685 540 516 606 267 366 342
18.500283 1329703803.654923 542 517 604 233 360 339
18.527723 1329703803.663223 544 517 603 198 354 339
18.527723 1329703803.671532 542 522 601 167 348 341
18.568681 1329703803.680290 540 529 600 142 348 343
18.568681 1329703803.695854 537 533 600 127 351 347
18.610956 1329703803.698989 532 537 596 124 348 354
18.610956 1329703803.704876 534 542 591 138 342 357
18.658800 1329703803.713379 531 549 584 153 337 361
18.658800 1329703803.721540 524 558 579 170 333 367
18.694155 1329703803.730219 519 565 573 200 330 373
18.694155 1329703803.738116 511 573 569 231 332 377
18.727664 1329703803.746924 508 576 565 262 332 379
18.727664 1329703803.754819 503 578 561 295 332 382
18.767908 1329703803.763289 504 582 557 328 335 384
18.767908 1329703803.771289 502 587 554 354 342 383
18.808916 1329703803.788056 502 591 554 386 351 382
18.808916 1329703803.791242 503 590 554 417 359 379
18.858057 1329703803.796530 501 588 556 446 369 377
18.858057 1329703803.804712 500 587 558 472 383 377
18.893297 1329703803.813171 501 584 561 500 394 376
18.893297 1329703803.821763 506 577 566 527 402 377
18.926617 1329703803.829856 508 569 571 549 409 376
18.926617 1329703803.838541 509 562 576 565 418 379
18.968667 1329703803.846622 513 556 582 575 420 381
18.968667 1329703803.854618 516 548 589 577 420 381
19.009967 1329703803.863135 518 541 594 574 418 384
19.009967 1329703803.871695 522 535 599 566 412 386
19.051458 1329703803.880079 524 527 605 556 407 390
19.051458 1329703803.896692 529 520 606 545 401 391
19.086536 1329703803.904853 531 517 607 528 393 394
19.086536 1329703803.912946 533 517 607 506 387 394
19.129511 1329703803.921868 533 515 606 486 378 393
19.129511 1329703803.929499 535 511 604 473 360 392
19.168117 1329703803.938352 535 513 602 459 349 390
19.168117 1329703803.947718 530 517 600 446 349 384
19.210066 1329703803.954980 532 515 597 433 349 378
19.210066 1329703803.963120 531 510 596 422 350 372
19.251871 1329703803.971683 528 505 597 415 356 365
19.251871 1329703803.979654 527 508 595 408 370 358
19.293580 1329703803.988489 521 506 596 401 378 352
19.293580 1329703803.996531 515 498 598 397 378 352
19.326965 1329703804.004631 510 495 599 398 380 355
19.326965 1329703804.012964 510 497 599 395 388 356
19.368641 1329703804.021443 511 499 601 392 392 356
19.368641 1329703804.029539 509 493 603 394 388 357
19.410598 1329703804.038240 502 491 605 391 387 361
19.410598 1329703804.046348 501 495 606 386 392 366
19.452222 1329703804.057133 506 499 607 378 399 364
19.452222 1329703804.063107 502 496 607 371 401 366
19.493827 1329703804.071257 506 491 609 367 396 370
19.493827 1329703804.079189 507 494 611 364 396 370
19.530041 1329703804.088235 504 500 612 358 400 370
19.530041 1329703804.096379 507 497 612 357 402 372
19.567998 1329703804.112119 507 494 613 361 398 373
19.567998 1329703804.135800 505 495 614 366 388 375
19.610934 1329703804.148313 506 500 615 364 386 375
19.610934 1329703804.154355 510 501 615 361 385 373
19.646942 1329703804.163102 509 500 616 364 384 374
19.646942 1329703804.171126 508 502 616 372 374 376
19.687791 1329703804.179727 510 505 616 379 366 377
19.687791 1329703804.191267 509 504 614 383 361 375
19.727469 1329703804.196392 510 500 612 387 353 372
19.727469 1329703804.204157 509 500 612 392 347 370
19.768207 1329703804.212942 509 502 609 393 347 368
19.768207 1329703804.221556 508 501 607 388 352 363
19.807075 1329703804.229699 507 496 606 380 358 359
19.807075 1329703804.237622 506 493 607 373 362 357
19.851357 1329703804.246122 511 497 604 369 366 359
19.851357 1329703804.254554 505 498 604 366 366 361
19.893799 1329703804.262983 508 496 604 364 367 360
19.893799 1329703804.270989 506 494 604 364 370 362
19.961257 1329703804.279683 506 494 603 365 369 363
19.961257 1329703804.287578 506 495 602 369 372 365
19.975776 1329703804.319777 507 497 601 373 373 368
19.975776 1329703804.333796 508 498 602 374 376 367
20.009753 1329703804.337841 509 498 603 376 380 365
20.009753 1329703804.346310 509 498 605 376 382 365
20.051380 1329703804.354585 511 498 606 373 380 365
20.051380 1329703804.362633 510 499 607 371 380 365
20.092847 1329703804.381591 512 498 607 371 373 366
20.092847 1329703804.389088 512 499 607 372 370 365
20.127026 1329703804.396205 512 496 607 372 368 365
20.127026 1329703804.404410 511 497 608 371 368 367
20.170239 1329703804.412872 510 500 606 372 373 369
20.170239 1329703804.421333 509 499 606 373 377 368
20.209376 1329703804.431890 510 499 604 372 378 369
20.209376 1329703804.437315 512 498 605 371 378 370
20.251493 1329703804.445943 512 498 604 372 374 370
20.251493 1329703804.454471 512 501 604 375 373 369
20.293085 1329703804.462750 513 500 604 376 374 368
20.293085 1329703804.470966 512 498 605 374 375 367
20.334438 1329703804.479604 510 497 604 375 374 369
20.334438 1329703804.487738 510 497 603 378 375 371
20.366881 1329703804.495830 510 498 602 377 377 372
20.366881 1329703804.504438 511 498 603 376 379 371
20.409215 1329703804.512646 509 499 603 373 380 371
20.409215 1329703804.520567 508 499 603 372 382 370
20.451012 1329703804.529279 508 498 604 372 385 371
20.451012 1329703804.537451 508 498 606 372 388 371
20.492577 1329703804.546065 507 499 606 373 388 372
20.492577 1329703804.554334 507 498 607 374 386 371
20.527735 1329703804.562548 506 500 609 375 384 373
20.527735 1329703804.570395 506 501 609 374 384 373
20.575065 1329703804.579370 503 499 610 373 383 370
20.575065 1329703804.587595 502 498 610 374 381 367
20.609180 1329703804.595933 500 498 611 372 383 367
20.609180 1329703804.604389 497 499 613 370 384 368
20.651229 1329703804.612710 495 500 614 368 382 368
20.651229 1329703804.620630 494 502 614 368 378 368
20.692699 1329703804.629295 495 504 613 364 378 366
20.692699 1329703804.637377 495 501 614 359 380 361
20.733055 1329703804.645459 493 501 616 357 380 360
20.733055 1329703804.654299 491 502 616 359 373 361
20.767823 1329703804.662541 493 500 614 360 365 362
20.767823 1329703804.670759 495 499 615 365 368 365
20.808867 1329703804.693210 496 504 616 375 370 367
20.808867 1329703804.696135 496 507 615 388 361 368
20.850745 1329703804.704171 496 504 611 393 355 367
20.850745 1329703804.712591 497 501 611 384 360 366
20.900873 1329703804.720976 498 503 611 364 367 367
20.900873 1329703804.728867 502 504 610 349 363 369
20.933893 1329703804.737404 508 504 610 351 355 371
20.933893 1329703804.745550 512 505 609 356 358 369
20.967324 1329703804.754179 512 507 607 355 358 365
20.967324 1329703804.762402 514 509 602 353 352 362
21.008423 1329703804.770646 516 508 599 350 351 355
21.008423 1329703804.778499 525 508 598 339 358 352
21.050446 1329703804.787776 529 507 599 319 369 349
21.050446 1329703804.795392 529 511 598 300 372 346
21.090308 1329703804.804085 535 518 594 282 373 339
21.090308 1329703804.812264 538 519 594 256 374 334
21.133112 1329703804.820773 535 519 595 227 378 332
21.133112 1329703804.828384 538 518 594 199 380 331
21.166824 1329703804.837549 536 520 592 175 377 337
21.166824 1329703804.845577 537 525 591 159 378 345
21.208561 1329703804.854015 534 531 594 156 375 352
21.208561 1329703804.862502 530 539 591 162 365 354
21.249633 1329703804.870588 529 543 586 163 353 358
21.249633 1329703804.887380 527 547 581 160 341 365
21.290846 1329703804.902807 520 556 577 167 336 371
21.290846 1329703804.915660 515 569 572 187 335 376
21.332198 1329703804.929694 512 575 568 210 340 377
21.332198 1329703804.945483 503 577 563 238 348 380
21.374033 1329703804.948328 504 584 559 270 354 386
21.374033 1329703804.960594 503 587 556 311 359 385
21.414730 1329703804.965986 499 589 554 353 362 384
21.414730 1329703804.978641 500 587 554 388 366 383
21.460419 1329703804.986759 497 587 556 421 371 382
21.460419 1329703804.995456 494 587 557 455 377 382
21.490760 1329703805.003413 496 587 560 489 385 384
21.490760 1329703805.011495 500 584 565 526 395 384
21.532513 1329703805.028398 504 578 569 558 399 382
21.532513 1329703805.039971 506 570 575 584 403 382
21.592071 1329703805.054784 507 561 580 602 410 383
21.592071 1329703805.061698 518 548 585 619 410 387
21.618642 1329703805.069758 520 540 590 624 407 391
21.618642 1329703805.077732 525 533 595 620 407 399
21.651188 1329703805.088512 528 528 599 609 410 405
21.651188 1329703805.095611 533 521 603 585 412 405
21.707521 1329703805.103338 538 517 607 552 411 404
21.707521 1329703805.112116 540 510 609 516 409 396
21.732833 1329703805.120027 541 505 610 486 402 392
21.732833 1329703805.128454 541 506 611 458 394 392
21.776409 1329703805.136533 540 510 609 430 386 388
21.776409 1329703805.144840 537 512 608 409 381 381
21.808270 1329703805.153371 535 509 607 399 380 375
21.808270 1329703805.161557 536 506 605 392 379 372
21.849144 1329703805.169867 531 507 604 386 375 367
21.849144 1329703805.177874 528 507 603 385 369 363
21.891183 1329703805.186679 524 504 604 385 368 363
21.891183 1329703805.194747 521 503 605 384 368 363
21.931709 1329703805.203004 520 506 604 379 369 361
21.931709 1329703805.211543 522 507 604 380 366 359
21.967469 1329703805.220074 516 508 606 387 366 354
21.967469 1329703805.239731 506 505 610 388 372 352
22.007969 1329703805.244625 506 500 608 383 377 357
22.007969 1329703805.252941 507 500 606 376 376 364
22.048770 1329703805.261109 508 504 606 374 373 369
22.048770 1329703805.268978 502 503 607 379 378 372
22.092753 1329703805.283933 501 498 609 382 385 375
22.092753 1329703805.285851 501 501 608 378 390 377
22.130750 1329703805.294007 505 502 607 370 388 377
22.130750 1329703805.302309 509 501 607 365 381 377
22.174349 1329703805.311318 506 500 607 369 380 376
22.174349 1329703805.318789 503 501 609 375 382 375
22.207394 1329703805.327466 504 499 608 382 378 373
22.207394 1329703805.335036 508 498 607 379 373 374
22.249458 1329703805.343715 507 501 608 379 370 377
22.249458 1329703805.351795 505 504 609 387 371 378
22.305227 1329703805.360368 508 505 609 394 373 379
22.305227 1329703805.368619 509 501 609 390 373 376
22.332165 1329703805.377208 507 497 608 380 366 375
22.332165 1329703805.396103 505 498 607 373 362 376
22.374132 1329703805.401945 509 504 605 373 361 375
22.374132 1329703805.414858 510 506 603 374 365 373
22.407468 1329703805.418339 506 502 604 366 369 369
22.407468 1329703805.426660 503 495 605 356 373 368
22.451334 1329703805.435288 501 495 604 357 375 369
22.451334 1329703805.443696 502 499 602 359 377 369
22.490918 1329703805.451939 505 502 600 361 382 369
22.490918 1329703805.462710 509 502 602 361 390 368
22.532352 1329703805.468324 508 501 603 363 394 368
22.532352 1329703805.477028 509 499 604 367 391 372
22.585772 1329703805.485158 511 499 605 372 386 372
22.585772 1329703805.493337 514 502 605 377 382 372
22.609449 1329703805.501812 517 504 605 381 381 370
22.609449 1329703805.510407 517 503 607 382 384 370
22.649468 1329703805.518774 518 502 608 380 385 366
22.649468 1329703805.527373 517 502 610 379 384 364
22.690477 1329703805.535929 515 502 611 380 378 365
22.690477 1329703805.543727 515 501 610 383 371 366
22.732154 1329703805.552232 517 500 610 381 371 368
22.732154 1329703805.560701 515 501 610 375 372 369
22.776407 1329703805.569213 514 504 610 373 371 369
22.776407 1329703805.577806 514 502 609 373 369 369
22.807142 1329703805.585979 514 501 606 372 368 368
22.807142 1329703805.593850 515 500 606 374 371 368
22.848770 1329703805.602771 515 500 607 373 375 368
22.848770 1329703805.611067 513 501 606 373 374 368
22.889947 1329703805.619468 513 501 604 374 368 369
22.889947 1329703805.627989 514 500 601 376 365 368
22.932385 1329703805.636051 516 499 603 378 368 369
22.932385 1329703805.644027 515 498 602 380 374 370
22.973621 1329703805.652619 513 498 603 378 377 372
22.973621 1329703805.660835 514 499 603 377 376 373
23.007152 1329703805.669340 515 500 604 375 375 373
23.007152 1329703805.677378 515 501 604 375 379 372
23.063329 1329703805.685889 515 500 605 375 380 372
23.063329 1329703805.693762 514 501 605 374 379 373
23.090131 1329703805.702204 514 501 606 374 377 372
23.090131 1329703805.710820 514 500 606 375 375 371
23.131494 1329703805.719325 514 500 606 377 374 372
23.131494 1329703805.727338 513 500 607 376 375 372
23.173413 1329703805.735904 513 501 606 374 377 372
23.173413 1329703805.744012 512 500 606 372 377 372
23.206844 1329703805.752265 511 499 606 374 377 371
23.206844 1329703805.760893 510 500 607 374 378 371
23.248333 1329703805.769109 509 499 607 374 380 370
23.248333 1329703805.777481 506 498 608 373 377 371
23.289968 1329703805.785770 505 499 608 374 372 373
23.289968 1329703805.794622 503 500 609 376 371 373
23.330953 1329703805.802167 499 498 611 376 374 370
23.330953 1329703805.811261 495 498 612 374 374 370
23.367159 1329703805.819217 494 499 613 373 370 370
23.367159 1329703805.827416 490 500 615 373 372 369
23.408553 1329703805.835869 487 501 617 375 371 370
23.408553 1329703805.844291 483 501 617 372 372 370
23.449403 1329703805.852303 483 502 616 370 368 369
23.449403 1329703805.861073 487 502 615 370 364 367
23.489861 1329703805.869415 490 500 615 373 361 364
23.489861 1329703805.877596 490 499 612 372 357 364
23.531610 1329703805.885790 491 499 611 374 349 363
23.531610 1329703805.894096 491 506 609 383 346 365
23.573697 1329703805.902189 498 505 608 394 353 363
23.573697 1329703805.910817 497 507 604 397 358 359
23.614708 1329703805.919416 499 511 599 386 359 353
23.614708 1329703805.927525 504 507 596 370 361 345
23.655790 1329703805.935491 508 500 594 353 368 343
23.655790 1329703805.944426 512 497 593 342 372 348
23.689323 1329703805.952276 516 500 593 340 378 349
23.689323 1329703805.964148 516 509 595 342 391 343
23.730907 1329703805.969388 519 514 597 344 401 336
23.730907 1329703805.981829 524 508 600 335 403 336
23.772743 1329703805.985789 532 501 603 317 396 338
23.772743 1329703805.993582 535 506 605 288 390 342
23.810684 1329703806.002164 541 512 607 255 386 343
23.810684 1329703806.010543 544 516 610 224 380 343
23.851705 1329703806.019010 544 519 608 199 369 344
23.851705 1329703806.027671 545 524 605 178 355 344
23.888752 1329703806.036042 546 528 600 159 348 345
23.888752 1329703806.054674 541 532 595 148 353 347
23.930284 1329703806.061001 536 539 588 146 355 351
23.930284 1329703806.069491 536 549 581 155 349 351
23.971968 1329703806.077410 528 551 578 166 350 347
23.971968 1329703806.086429 524 556 577 179 359 346
24.005906 1329703806.094505 513 559 575 201 362 352
24.005906 1329703806.110597 505 566 571 230 360 361
24.046587 1329703806.134331 501 574 566 262 362 370
24.046587 1329703806.146860 500 578 562 295 367 376
24.087964 1329703806.153439 500 579 561 330 376 380
24.087964 1329703806.161089 500 580 564 372 388 385
24.129637 1329703806.169369 500 581 565 413 393 386
24.129637 1329703806.177501 501 583 567 441 395 389
24.177057 1329703806.198788 503 581 571 463 397 387
24.177057 1329703806.211763 506 579 578 487 401 389
24.214126 1329703806.226917 509 576 585 514 401 391
24.214126 1329703806.229815 512 571 588 542 395 393
24.246861 1329703806.242272 518 562 589 565 389 394
24.246861 1329703806.245148 520 555 591 581 387 396
24.288910 1329703806.260162 522 552 595 586 389 400
24.288910 1329703806.272646 527 546 596 584 392 403
24.337800 1329703806.279705 533 538 600 575 391 406
24.337800 1329703806.286069 535 527 602 555 390 405
24.366178 1329703806.294475 539 519 603 527 388 405
24.366178 1329703806.302667 543 518 605 496 386 403
24.407139 1329703806.310599 545 517 606 463 385 397
24.407139 1329703806.319627 543 517 608 435 379 395
24.447050 1329703806.327799 543 518 609 415 369 389
24.447050 1329703806.335993 540 522 606 406 360 383
24.488665 1329703806.344570 538 520 602 402 354 377
24.488665 1329703806.352394 534 514 601 402 347 375
24.528802 1329703806.360542 529 514 600 407 348 370
24.528802 1329703806.380449 528 516 599 412 350 364
24.576376 1329703806.385933 526 516 597 416 353 358
24.576376 1329703806.394552 518 512 597 420 356 359
24.607018 1329703806.402746 510 512 598 415 363 359
24.607018 1329703806.410915 508 507 599 405 373 359
24.653934 1329703806.418852 505 503 600 395 379 357
24.653934 1329703806.435842 503 498 602 387 384 358
24.707657 1329703806.438778 497 501 603 383 388 363
24.707657 1329703806.444316 491 506 603 378 390 370
24.730496 1329703806.452789 494 505 602 370 388 373
24.730496 1329703806.460502 500 501 602 363 392 375
24.772002 1329703806.469095 502 500 603 363 395 377
24.772002 1329703806.477540 502 502 604 368 399 380
24.813491 1329703806.492395 501 504 606 371 394 383
24.813491 1329703806.507422 501 506 607 374 389 381
24.846891 1329703806.521623 502 510 611 376 386 377
24.846891 1329703806.527292 504 509 614 380 387 372
24.888091 1329703806.535329 508 508 615 381 386 371
24.888091 1329703806.544249 512 505 614 376 379 370
24.930801 1329703806.552622 511 507 615 369 370 372
24.930801 1329703806.560695 504 507 614 357 366 370
24.972552 1329703806.569131 500 501 613 353 365 367
24.972552 1329703806.577267 496 499 612 355 360 366
25.012652 1329703806.585642 502 499 609 360 354 368
25.012652 1329703806.593946 503 503 606 368 352 368
25.051702 1329703806.602483 501 505 605 375 352 372
25.051702 1329703806.610812 501 504 604 380 356 375
25.088842 1329703806.619188 498 503 603 387 362 376
25.088842 1329703806.627150 500 505 603 391 368 376
25.129867 1329703806.635584 503 506 603 388 375 375
25.129867 1329703806.643919 507 506 603 383 382 373
25.171422 1329703806.652758 506 507 603 374 383 369
25.171422 1329703806.660855 506 504 604 369 383 366
25.213393 1329703806.669125 507 502 605 366 385 366
25.213393 1329703806.687459 507 504 605 369 384 367
25.249590 1329703806.693884 509 507 606 375 380 368
25.249590 1329703806.702159 512 506 606 376 375 368
25.288644 1329703806.711060 511 504 607 382 369 367
25.288644 1329703806.719114 510 503 607 384 369 365
25.330344 1329703806.727483 510 504 606 381 372 364
25.330344 1329703806.739227 508 501 606 380 372 366
25.371495 1329703806.743643 507 505 607 381 372 369
25.371495 1329703806.752426 509 505 606 379 371 367
25.413220 1329703806.760769 508 502 605 376 372 366
25.413220 1329703806.769083 508 502 605 373 373 368
25.460569 1329703806.777197 509 503 605 373 376 370
25.460569 1329703806.785558 509 505 605 378 375 370
25.488487 1329703806.793525 509 506 604 378 374 370
25.488487 1329703806.802274 511 505 604 376 374 369
25.529443 1329703806.810680 511 502 605 375 377 369
25.529443 1329703806.818850 509 503 605 377 377 369
25.568671 1329703806.827451 509 505 605 376 374 369
25.568671 1329703806.835335 509 504 605 374 376 370
25.612724 1329703806.843434 509 503 603 376 376 370
25.612724 1329703806.851915 509 503 604 378 377 370
25.660598 1329703806.860800 510 503 605 379 380 372
25.660598 1329703806.868921 510 504 605 376 380 372
25.687864 1329703806.884858 510 503 604 375 381 371
25.687864 1329703806.908022 511 502 604 374 381 369
25.729656 1329703806.922642 511 502 605 376 382 370
25.729656 1329703806.926823 511 502 605 375 381 369
25.768331 1329703806.935564 511 502 605 376 378 370
25.768331 1329703806.943743 511 503 605 376 379 371
25.812654 1329703806.952005 510 503 605 376 380 372
25.812654 1329703806.964270 510 503 604 377 381 371
25.845958 1329703806.968690 509 502 604 377 380 369
25.845958 1329703806.976627 509 501 604 374 380 370
25.906054 1329703806.985539 508 501 604 374 382 370
25.906054 1329703806.993480 506 502 605 376 383 372
25.930310 1329703807.001669 503 503 605 377 384 371
25.930310 1329703807.017962 501 503 605 377 385 370
25.971303 1329703807.041988 498 501 607 375 386 368
25.971303 1329703807.054194 496 499 608 376 387 368
26.020254 1329703807.060426 494 500 609 376 388 368
26.020254 1329703807.068765 490 502 610 378 387 368
26.054856 1329703807.076632 487 500 611 384 388 369
26.054856 1329703807.085608 485 501 610 384 387 371
26.087659 1329703807.117090 488 500 609 379 392 374
26.087659 1329703807.131643 490 494 609 380 393 375
26.128900 1329703807.135229 492 495 613 387 392 379
26.128900 1329703807.143632 494 499 614 386 392 378
26.170284 1329703807.151521 493 503 614 377 384 372
26.170284 1329703807.160509 497 503 615 371 377 370
26.212373 1329703807.178796 501 502 615 379 370 371
26.212373 1329703807.185274 504 504 614 385 370 370
26.253873 1329703807.193836 505 510 611 380 370 367
26.253873 1329703807.201836 510 508 610 363 372 357
26.287710 1329703807.210073 512 495 610 354 367 352
26.287710 1329703807.218834 515 493 610 360 367 358
26.329824 1329703807.226635 516 503 609 373 366 362
26.329824 1329703807.234966 514 512 607 376 372 361
26.376413 1329703807.243745 518 504 604 366 379 355
26.376413 1329703807.252259 522 498 603 350 376 349
26.411678 1329703807.260052 527 503 602 331 375 348
26.411678 1329703807.268561 529 507 603 307 379 344
26.453459 1329703807.276600 531 513 605 284 379 340
26.453459 1329703807.293868 536 513 607 262 377 338
26.486410 1329703807.309778 536 515 607 244 371 338
26.486410 1329703807.342380 540 519 605 230 359 339
26.528155 1329703807.354480 544 525 600 213 345 344
26.528155 1329703807.360344 545 527 593 192 343 343
26.577608 1329703807.368317 549 530 589 174 351 341
26.577608 1329703807.376612 540 534 589 157 357 342
26.610767 1329703807.385314 535 542 589 146 354 348
26.610767 1329703807.392958 530 553 586 147 353 354
26.652434 1329703807.401480 526 561 578 159 357 354
26.652434 1329703807.409674 527 560 572 176 357 354
26.693463 1329703807.418530 521 559 570 192 358 363
26.693463 1329703807.426676 519 565 565 218 361 375
26.727488 1329703807.434906 514 577 560 253 364 380
26.727488 1329703807.443017 511 580 558 291 371 384
26.768160 1329703807.451310 511 581 557 325 380 384
26.768160 1329703807.459951 510 580 558 361 382 385
26.810278 1329703807.468166 509 580 560 394 382 384
26.810278 1329703807.476750 509 580 564 417 384 385
26.851675 1329703807.507579 511 581 566 437 385 386
26.851675 1329703807.530715 513 582 567 456 387 387
26.894173 1329703807.554005 514 582 572 479 387 386
26.894173 1329703807.568843 515 580 578 505 388 387
26.927676 1329703807.576377 518 573 582 530 388 387
26.927676 1329703807.584542 520 568 585 552 386 389
26.969038 1329703807.600111 524 563 588 568 383 391
26.969038 1329703807.613792 524 556 592 574 383 391
27.011646 1329703807.617074 526 548 595 570 382 393
27.011646 1329703807.625958 530 542 596 562 378 396
27.052320 1329703807.634416 532 537 599 547 376 398
27.052320 1329703807.642404 534 530 602 535 379 400
27.093940 1329703807.650817 538 527 603 523 378 400
27.093940 1329703807.659182 537 525 603 508 373 399
27.127695 1329703807.667870 539 522 604 490 372 394
27.127695 1329703807.675783 541 518 605 470 369 388
27.168939 1329703807.684297 539 515 605 452 362 385
27.168939 1329703807.692723 535 508 606 439 354 386
27.211278 1329703807.711211 531 507 606 427 352 391
27.211278 1329703807.717382 532 509 603 414 354 390
27.255372 1329703807.729191 528 511 599 402 355 382
27.255372 1329703807.734066 522 507 599 398 356 377
27.298018 1329703807.742448 521 507 598 398 361 373
27.298018 1329703807.750891 517 511 598 401 368 371
27.328252 1329703807.770901 511 515 599 405 373 366
27.328252 1329703807.777305 506 515 600 406 375 362
27.375859 1329703807.783705 508 507 601 403 380 356
27.375859 1329703807.792564 506 503 603 401 382 352
27.410908 1329703807.800750 504 503 605 398 381 352
27.410908 1329703807.809036 499 501 606 393 375 357
27.452493 1329703807.817397 499 493 607 386 369 362
27.452493 1329703807.825749 496 492 609 384 366 366
27.492408 1329703807.833837 499 497 609 383 370 370
27.492408 1329703807.842399 497 498 607 382 373 375
27.531363 1329703807.850531 497 495 608 383 370 380
27.531363 1329703807.858941 500 500 609 384 374 379
27.569985 1329703807.867476 504 501 608 381 382 372
27.569985 1329703807.875099 502 499 606 379 382 373
27.610702 1329703807.883347 499 496 607 376 379 377
27.610702 1329703807.892277 494 497 608 372 382 379
27.652600 1329703807.900452 496 496 607 368 382 377
27.652600 1329703807.908445 500 497 606 367 374 376
27.686090 1329703807.917544 506 500 604 367 371 378
27.686090 1329703807.924998 506 502 604 374 374 381
27.728426 1329703807.933182 500 502 604 381 378 379
27.728426 1329703807.941798 500 502 604 385 375 374
27.769384 1329703807.949940 501 504 603 384 371 367
27.769384 1329703807.958124 503 502 604 378 376 361
27.810442 1329703807.971156 503 498 605 376 384 360
27.810442 1329703807.974527 505 495 605 376 387 361
27.852066 1329703807.982785 506 497 606 378 384 360
27.852066 1329703807.991609 504 499 605 379 380 359
27.887781 1329703807.999803 503 496 607 381 380 358
27.887781 1329703808.007968 502 492 607 375 380 360
27.940184 1329703808.016301 503 491 607 370 378 367
27.940184 1329703808.024383 505 494 607 366 379 372
27.968643 1329703808.032587 506 497 607 364 384 373
27.968643 1329703808.050369 505 499 608 367 386 373
28.010555 1329703808.051822 508 497 608 371 384 371
28.010555 1329703808.057973 508 498 608 370 382 367
28.047754 1329703808.069994 510 499 609 369 380 368
28.047754 1329703808.074168 512 499 610 372 378 368
28.093342 1329703808.082824 513 498 610 377 375 366
28.093342 1329703808.091380 512 496 609 376 371 366
28.127021 1329703808.099585 511 495 609 372 371 365
28.127021 1329703808.107633 511 495 608 369 367 368
28.179281 1329703808.125099 511 499 607 368 368 370
28.179281 1329703808.138409 512 499 605 367 371 369
28.227756 1329703808.141057 512 496 605 365 375 368
28.227756 1329703808.149549 511 498 605 366 372 369
28.257820 1329703808.158203 510 501 603 368 369 369
28.257820 1329703808.166518 509 502 602 371 368 369
28.293217 1329703808.175552 510 501 602 373 370 368
28.293217 1329703808.183940 511 498 601 373 376 367
28.327096 1329703808.191519 509 498 601 373 378 368
28.327096 1329703808.199990 509 498 601 376 379 370
28.368406 1329703808.208280 510 499 602 379 381 369
28.368406 1329703808.216557 511 497 602 378 383 371
28.411161 1329703808.225064 512 497 603 378 384 373
28.411161 1329703808.234359 513 499 604 375 386 371
28.459705 1329703808.241448 513 497 605 373 387 371
28.459705 1329703808.250103 513 498 606 375 386 372
28.493443 1329703808.258461 513 500 607 376 383 372
28.493443 1329703808.266787 513 500 606 377 381 373
28.527704 1329703808.275154 512 499 606 375 381 373
28.527704 1329703808.283290 510 500 607 375 379 372
28.568433 1329703808.291942 510 501 607 374 377 370
28.568433 1329703808.300271 509 499 607 374 381 371
28.609478 1329703808.308452 507 498 608 374 383 368
28.609478 1329703808.316725 505 498 608 375 383 368
28.651503 1329703808.325526 503 499 608 375 383 368
28.651503 1329703808.333660 501 499 608 373 382 368
28.693673 1329703808.341707 499 498 608 373 381 367
28.693673 1329703808.350044 498 499 610 374 379 368
28.726755 1329703808.358792 495 500 611 375 380 368
28.726755 1329703808.366645 493 500 611 375 380 368
28.768073 1329703808.375310 490 497 612 375 377 367
28.768073 1329703808.384683 489 494 613 370 376 367
28.810622 1329703808.391653 489 496 614 368 377 370
28.810622 1329703808.400884 489 501 615 370 379 374
28.859881 1329703808.408327 490 502 614 368 379 372
28.859881 1329703808.417061 492 499 613 355 377 365
28.894506 1329703808.424949 495 499 615 340 379 362
28.894506 1329703808.433296 494 502 615 331 376 363
28.952555 1329703808.441589 497 499 613 333 362 364
28.952555 1329703808.449730 500 501 612 330 356 364
28.967483 1329703808.458260 502 509 610 316 352 364
28.967483 1329703808.466233 507 506 608 311 346 362
29.009373 1329703808.474756 508 504 608 317 348 363
29.009373 1329703808.494344 512 508 607 317 355 366
29.051817 1329703808.499895 516 517 607 304 362 367
29.051817 1329703808.508016 518 520 608 291 362 363
29.098742 1329703808.516226 522 525 609 276 362 355
29.098742 1329703808.524803 526 524 610 265 359 348
29.125981 1329703808.533013 529 528 610 247 351 349
29.125981 1329703808.541411 534 534 606 226 346 343
29.167643 1329703808.549722 536 538 601 205 340 334
29.167643 1329703808.558102 531 537 596 181 332 329
29.208287 1329703808.566037 529 536 590 159 325 329
29.208287 1329703808.574759 532 534 584 154 321 332
29.249658 1329703808.583120 525 534 580 163 319 343
29.249658 1329703808.591339 522 542 575 179 318 360
29.292378 1329703808.599575 522 555 570 203 317 373
29.292378 1329703808.607995 523 568 562 222 324 377
29.332769 1329703808.616461 517 574 556 238 338 377
29.332769 1329703808.624667 514 574 555 253 346 376
29.365917 1329703808.632953 513 575 553 271 353 378
29.365917 1329703808.646049 506 580 550 288 358 381
29.407404 1329703808.650146 503 584 548 304 365 384
29.407404 1329703808.658136 501 586 549 325 376 387
29.458519 1329703808.666706 502 588 549 352 387 390
29.458519 1329703808.674671 503 591 548 378 389 390
29.491015 1329703808.683107 499 592 554 422 391 388
29.532480 1329703808.691277 502 592 559 449 398 388
29.532480 1329703808.699715 506 592 560 481 401 386
29.572703 1329703808.707955 505 587 564 511 402 386
29.572703 1329703808.716533 503 580 567 534 406 383
29.608881 1329703808.724970 507 574 573 552 409 385
29.608881 1329703808.733348 514 569 580 564 417 384
29.649779 1329703808.741693 517 562 585 572 421 383
29.649779 1329703808.750647 523 556 590 570 416 381
29.691620 1329703808.758480 526 550 596 561 410 381
29.691620 1329703808.767133 525 545 597 548 403 382
29.731044 1329703808.775171 527 538 599 537 397 382
29.731044 1329703808.783379 527 530 601 529 392 386
29.766434 1329703808.792986 530 524 603 518 387 387
29.766434 1329703808.800064 531 525 602 505 386 387
29.808478 1329703808.808482 531 527 601 495 380 381
29.808478 1329703808.816577 526 524 601 489 375 380
29.850111 1329703808.824944 523 519 600 481 375 382
29.850111 1329703808.835382 521 516 599 472 381 380
29.905677 1329703808.841444 520 517 599 464 388 372
29.905677 1329703808.850058 514 512 603 457 389 365
29.933649 1329703808.858497 509 506 608 451 389 368
29.933649 1329703808.866733 510 505 609 439 389 372
29.967724 1329703808.874910 510 510 607 420 387 373
29.967724 1329703808.883477 510 509 608 403 387 366
30.008476 1329703808.891276 510 502 610 396 390 365
30.008476 1329703808.900007 504 496 611 390 388 369
30.052343 1329703808.908269 504 499 610 383 378 374
30.052343 1329703808.916749 510 503 607 376 372 374
30.095028 1329703808.924865 506 506 606 376 375 370
30.095028 1329703808.934224 504 500 605 380 379 370
30.133669 1329703808.941776 502 498 605 382 381 370
30.133669 1329703808.949815 503 504 605 388 382 369
30.167030 1329703808.958449 504 504 605 395 384 366
30.167030 1329703808.967036 507 499 607 397 390 364
30.208458 1329703808.974829 507 497 606 398 391 363
30.208458 1329703808.983675 502 497 606 395 389 361
30.250454 1329703808.991785 499 496 608 387 387 367
30.250454 1329703809.000353 501 493 608 377 382 370
30.299259 1329703809.008405 501 492 606 375 378 370
30.299259 1329703809.016917 503 490 606 375 377 371
30.335913 1329703809.025110 505 493 605 373 381 376
30.335913 1329703809.033146 506 497 605 373 385 374
30.369055 1329703809.042451 502 500 606 373 388 371
30.369055 1329703809.049847 503 496 606 374 389 369
30.408646 1329703809.058530 506 495 607 372 390 371
30.408646 1329703809.066994 507 493 609 369 390 374
30.449468 1329703809.075279 506 495 609 367 390 376
30.449468 1329703809.101274 510 498 609 367 386 376
30.491527 1329703809.125585 512 500 609 373 384 374
30.491527 1329703809.149235 515 501 608 381 385 370
30.532126 1329703809.163911 517 498 607 380 384 367
30.532126 1329703809.166848 515 496 608 376 382 365
30.566478 1329703809.175200 514 495 607 374 378 365
30.566478 1329703809.183098 514 495 607 376 376 365
30.608050 1329703809.191754 516 492 606 375 374 366
30.608050 1329703809.199826 517 491 607 372 376 370
30.649582 1329703809.208043 514 493 607 370 380 371
30.649582 1329703809.216351 513 497 607 371 379 373
30.690609 1329703809.225276 515 499 606 374 377 371
30.690609 1329703809.232966 519 498 605 370 377 369
30.736496 1329703809.244418 520 496 606 368 381 368
30.736496 1329703809.267956 517 498 606 370 381 367
30.766935 1329703809.274939 518 499 606 372 377 367
30.766935 1329703809.282604 518 499 607 374 375 365
30.838547 1329703809.291638 517 497 608 375 374 363
30.838547 1329703809.299898 512 497 610 375 371 364
30.850899 1329703809.307980 509 497 611 375 371 365
30.850899 1329703809.316490 503 495 614 377 371 366
30.891172 1329703809.324899 489 495 619 382 371 364
30.891172 1329703809.332657 477 498 624 386 368 360
30.932804 1329703809.341457 464 499 628 396 365 358
30.932804 1329703809.349754 456 495 633 399 368 352
30.967130 1329703809.358270 452 493 637 390 376 350
30.967130 1329703809.369953 450 493 637 368 377 348
31.007696 1329703809.374652 449 488 636 338 367 341
31.007696 1329703809.382689 463 485 631 299 352 334
31.049558 1329703809.391281 475 491 627 255 344 330
31.049558 1329703809.399788 490 492 620 221 337 325
31.092877 1329703809.407701 502 493 613 203 318 320
31.092877 1329703809.423550 514 499 607 184 298 317
31.132569 1329703809.426707 519 514 600 145 295 320
31.132569 1329703809.432639 537 524 590 103 296 322
31.167544 1329703809.441356 550 521 584 75 306 325
31.167544 1329703809.449888 547 518 581 57 319 332
31.206744 1329703809.457946 545 522 578 51 325 345
31.206744 1329703809.466282 546 534 574 60 328 367
31.247561 1329703809.474730 542 545 571 91 332 381
31.247561 1329703809.482501 544 562 561 147 327 387
31.293027 1329703809.491191 545 579 553 194 316 391
31.293027 1329703809.499640 536 588 546 232 308 391
31.330392 1329703809.507911 540 587 541 259 308 398
31.330392 1329703809.516301 539 588 536 285 313 400
31.379307 1329703809.527695 534 595 533 314 317 397
31.379307 1329703809.532283 527 605 531 346 324 394
31.413854 1329703809.541215 522 605 529 385 337 393
31.413854 1329703809.549594 520 607 532 437 354 389
31.456027 1329703809.557813 519 606 533 493 369 383
31.456027 1329703809.566087 518 599 536 540 381 377
31.489596 1329703809.586738 516 586 542 571 394 379
31.489596 1329703809.601386 512 575 550 601 410 382
31.531080 1329703809.616354 518 567 559 630 426 390
31.531080 1329703809.624571 526 563 569 655 440 401
31.568501 1329703809.632733 528 556 579 670 449 403
31.568501 1329703809.641060 537 544 586 667 450 405
31.608725 1329703809.649310 539 533 593 660 449 412
31.608725 1329703809.664388 538 529 602 651 443 415
31.649969 1329703809.678737 535 526 608 628 422 408
31.649969 1329703809.693264 537 522 612 590 401 398
31.689896 1329703809.699480 540 524 612 544 392 385
31.689896 1329703809.707524 533 526 611 500 383 371
31.731804 1329703809.725262 518 518 611 470 367 362
31.731804 1329703809.748999 517 518 608 446 362 355
31.772633 1329703809.764007 519 514 604 422 369 342
31.772633 1329703809.767199 514 505 603 402 373 337
31.806609 1329703809.774373 501 494 606 386 374 340
31.806609 1329703809.782448 496 487 609 374 375 350
31.848953 1329703809.790867 499 492 609 374 380 356
31.848953 1329703809.799114 493 494 608 372 381 363
31.889100 1329703809.807719 480 493 609 370 379 371
31.889100 1329703809.815781 486 496 609 372 381 377
31.931799 1329703809.824652 493 504 607 372 379 373
31.931799 1329703809.832664 495 505 609 371 382 373
31.966751 1329703809.852831 497 499 611 376 388 373
31.966751 1329703809.857012 492 497 612 380 390 375
32.013072 1329703809.865563 491 500 612 382 387 377
32.013072 1329703809.874094 497 502 612 377 385 376
32.055567 1329703809.882605 500 501 613 369 384 376
32.055567 1329703809.890737 503 500 614 364 385 376
32.090469 1329703809.914791 503 500 612 362 382 375
32.090469 1329703809.929647 503 502 610 362 375 372
32.131794 1329703809.953463 501 505 607 368 369 371
32.131794 1329703809.968023 503 507 606 373 367 370
32.172740 1329703809.974030 507 504 605 374 372 368
32.172740 1329703809.982415 510 501 605 375 379 367
32.224271 1329703809.990891 508 501 606 379 381 367
32.224271 1329703809.998733 507 502 605 382 379 366
32.247521 1329703810.008256 509 500 605 382 378 366
32.247521 1329703810.015838 511 497 606 378 379 366
32.289641 1329703810.024613 512 497 607 375 383 369
32.289641 1329703810.032374 511 498 608 373 384 369
32.331168 1329703810.040892 508 500 606 373 379 370
32.331168 1329703810.059373 509 502 605 372 377 368
32.387645 1329703810.074760 511 500 605 371 378 369
32.387645 1329703810.098389 515 498 605 371 384 369
32.418296 1329703810.101448 514 498 606 374 386 369
32.418296 1329703810.107212 512 502 608 377 383 370
32.465449 1329703810.115401 513 503 607 380 380 368
32.465449 1329703810.123681 514 502 607 379 378 369
32.489778 1329703810.148370 518 500 607 375 378 370
32.489778 1329703810.163102 518 500 608 373 378 371
32.530796 1329703810.166122 516 501 607 373 376 370
32.530796 1329703810.173822 515 503 606 375 373 370
32.572865 1329703810.182013 516 503 605 376 373 370
32.572865 1329703810.190622 517 501 606 375 376 370
32.614395 1329703810.209893 517 500 606 376 373 369
32.614395 1329703810.215335 514 501 604 378 371 369
32.647491 1329703810.223719 514 501 604 379 373 370
32.647491 1329703810.231758 516 501 604 377 377 369
32.689384 1329703810.240270 516 500 605 376 380 370
32.689384 1329703810.248294 515 500 605 377 378 371
32.731876 1329703810.256864 515 501 604 378 373 371
32.731876 1329703810.265250 516 501 605 377 374 371
32.772293 1329703810.273746 517 501 605 376 377 371
32.772293 1329703810.281639 516 500 606 378 377 370
32.807419 1329703810.290222 515 501 606 380 374 370
32.807419 1329703810.298447 515 501 604 378 374 371
32.849389 1329703810.306551 516 500 606 377 376 372
32.849389 1329703810.315697 516 499 606 378 378 372
32.889068 1329703810.323494 515 499 606 380 376 372
32.889068 1329703810.331431 514 499 605 380 374 371
32.930653 1329703810.339687 515 499 604 381 374 372
32.930653 1329703810.348263 516 499 604 378 376 372
32.984250 1329703810.356615 516 499 605 375 378 372
32.984250 1329703810.372606 516 498 606 375 377 371
33.013708 1329703810.375780 515 497 605 376 378 371
33.013708 1329703810.381851 515 497 606 378 377 373
33.047014 1329703810.389674 515 497 606 379 377 375
33.047014 1329703810.398475 516 498 606 377 377 374
33.088771 1329703810.406603 515 499 606 376 374 374
33.088771 1329703810.414613 514 498 605 375 374 373
33.130415 1329703810.423465 514 496 606 377 373 374
33.130415 1329703810.431435 514 496 606 375 375 374
33.171739 1329703810.439749 514 498 607 375 376 375
33.171739 1329703810.448188 514 498 607 375 374 376
33.222667 1329703810.456676 515 498 607 375 374 375
33.222667 1329703810.464833 514 497 607 376 375 375
33.246926 1329703810.473170 513 497 607 376 376 374
33.246926 1329703810.481540 512 498 608 376 374 373
33.288385 1329703810.489768 510 496 608 375 375 373
33.288385 1329703810.497964 507 496 609 376 376 371
33.331137 1329703810.506639 503 496 610 376 377 372
33.331137 1329703810.514668 501 495 612 377 374 372
33.372739 1329703810.525915 497 495 613 379 373 372
33.372739 1329703810.531420 492 495 615 379 374 374
33.413510 1329703810.539368 487 494 618 381 380 371
33.413510 1329703810.547924 481 493 621 383 382 370
33.452833 1329703810.556205 472 494 625 384 379 367
33.452833 1329703810.564273 467 498 626 382 374 367
33.488579 1329703810.574447 466 501 627 375 371 364
33.488579 1329703810.580993 468 496 629 373 359 361
33.530109 1329703810.589076 472 489 627 373 340 359
33.530109 1329703810.597667 476 492 623 373 327 362
33.571897 1329703810.605662 481 499 618 367 330 359
33.571897 1329703810.613830 486 501 614 357 333 353
33.612369 1329703810.622131 494 497 609 344 332 349
33.612369 1329703810.630612 504 496 605 330 334 348
33.648382 1329703810.638821 513 498 604 314 336 352
33.648382 1329703810.646979 520 508 603 287 333 352
33.701000 1329703810.655256 534 517 600 244 332 347
33.701000 1329703810.663744 551 518 597 187 339 333
33.729386 1329703810.672472 554 512 600 134 347 327
33.729386 1329703810.680339 558 508 601 92 345 331
33.770717 1329703810.688724 567 514 597 61 334 338
33.770717 1329703810.696912 572 525 590 26 332 340
33.812113 1329703810.705495 561 536 584 5 329 343
33.812113 1329703810.713560 546 544 580 5 326 349
33.855291 1329703810.722202 532 549 576 13 321 359
33.855291 1329703810.730198 519 564 567 59 311 373
33.886172 1329703810.738969 510 579 555 123 297 384
33.886172 1329703810.746675 505 588 541 191 287 387
33.927598 1329703810.755352 502 594 529 258 280 390
33.927598 1329703810.763321 497 600 521 328 286 388
33.974471 1329703810.771920 499 603 518 399 302 380
33.974471 1329703810.780251 491 606 517 458 326 372
34.008319 1329703810.788970 490 601 520 504 352 369
34.008319 1329703810.797081 491 595 525 548 373 367
34.054973 1329703810.805467 490 589 532 585 392 368
34.054973 1329703810.813736 491 584 540 609 404 370
34.086975 1329703810.822164 497 575 549 622 413 370
34.086975 1329703810.839294 502 565 558 630 421 372
34.128566 1329703810.851303 505 557 566 636 428 376
34.128566 1329703810.858981 505 552 574 630 437 378
34.170491 1329703810.864119 507 543 582 612 441 376
34.170491 1329703810.872079 514 534 590 597 442 380
34.212136 1329703810.880708 516 527 595 584 437 379
34.212136 1329703810.889187 512 523 598 568 428 378
34.246627 1329703810.897439 512 522 601 543 417 378
34.246627 1329703810.905847 515 523 603 515 415 378
34.287607 1329703810.914142 522 519 604 492 417 371
34.287607 1329703810.922386 520 514 605 474 417 366
34.328885 1329703810.931347 510 514 606 458 404 364
34.328885 1329703810.939429 513 514 607 440 397 363
34.370975 1329703810.954272 514 510 608 425 401 356
34.370975 1329703810.956586 508 506 610 419 403 351
34.412566 1329703810.964340 505 503 610 415 392 352
34.412566 1329703810.972299 505 503 610 411 386 355
34.453847 1329703810.980794 503 500 608 401 388 357
34.453847 1329703810.989209 501 500 608 392 394 356
34.487755 1329703810.997511 496 499 609 387 396 356
34.487755 1329703811.005811 492 494 610 385 395 363
34.529111 1329703811.014368 494 491 611 383 395 370
34.529111 1329703811.022450 500 496 608 379 394 375
34.570884 1329703811.030621 498 504 609 376 396 374
34.570884 1329703811.039270 499 503 609 373 397 370
34.612664 1329703811.047714 501 494 610 373 398 369
34.612664 1329703811.060696 505 492 612 379 396 371
34.653735 1329703811.064191 501 499 613 383 396 375
34.653735 1329703811.072555 500 498 612 386 394 375
34.698837 1329703811.080541 500 494 613 385 388 377
34.698837 1329703811.089643 502 490 613 384 387 379
34.737419 1329703811.109721 503 491 612 379 387 380
34.737419 1329703811.114264 505 498 610 377 387 383
34.770566 1329703811.122774 507 503 608 369 384 382
34.770566 1329703811.130818 507 499 608 363 384 379
34.812364 1329703811.138959 507 495 608 364 383 377
34.812364 1329703811.147495 510 500 608 371 383 375
34.854101 1329703811.155750 511 503 607 377 380 373
34.854101 1329703811.164025 513 503 606 382 377 371
34.886806 1329703811.172487 511 499 606 381 374 367
34.886806 1329703811.180566 508 495 607 381 375 364
34.929046 1329703811.188982 506 493 606 384 375 364
34.929046 1329703811.197338 511 492 604 384 374 367
34.973474 1329703811.205724 510 494 605 379 379 369
34.973474 1329703811.225720 509 492 606 379 382 372
35.012016 1329703811.232281 510 495 605 383 384 375
35.012016 1329703811.238717 513 495 607 384 382 374
35.053714 1329703811.247260 512 492 606 375 380 373
35.053714 1329703811.255648 512 491 607 369 378 375
35.086937 1329703811.264128 514 495 607 369 377 376
35.086937 1329703811.274015 516 497 607 366 379 378
35.137733 1329703811.280632 517 497 607 363 381 377
35.137733 1329703811.288795 515 496 609 365 381 375
35.180633 1329703811.297464 514 498 608 370 376 376
35.180633 1329703811.305690 515 501 608 374 374 378
35.211983 1329703811.314101 518 500 607 375 372 377
35.211983 1329703811.322550 518 499 607 375 373 374
35.253717 1329703811.330953 517 498 607 374 373 373
35.253717 1329703811.338701 515 497 607 375 371 372
35.289964 1329703811.347518 516 498 606 375 368 373
35.289964 1329703811.355534 516 496 606 374 366 373
35.328668 1329703811.364123 515 496 606 373 369 375
35.328668 1329703811.372362 515 497 605 371 373 376
35.369801 1329703811.388327 516 497 604 371 374 376
35.369801 1329703811.390592 515 499 604 373 374 373
35.411583 1329703811.397535 516 499 604 372 374 373
35.411583 1329703811.405615 515 497 604 373 374 371
35.457272 1329703811.414176 515 496 605 373 375 374
35.457272 1329703811.422698 516 497 605 372 375 374
35.486758 1329703811.430723 515 499 604 374 374 375
35.486758 1329703811.438762 515 499 604 373 374 374
35.528205 1329703811.447559 515 497 604 371 375 374
35.528205 1329703811.455582 515 497 605 370 376 374
35.569458 1329703811.464009 515 499 604 374 377 375
35.569458 1329703811.472461 515 499 604 376 377 373
35.611401 1329703811.480815 514 498 605 372 378 374
35.611401 1329703811.488562 515 497 606 371 377 374
35.653257 1329703811.497359 515 497 605 371 376 374
35.653257 1329703811.505782 516 499 605 372 375 374
35.686457 1329703811.513916 515 499 605 371 377 374
35.686457 1329703811.522616 515 498 606 371 376 373
35.727987 1329703811.530773 513 499 606 368 375 374
35.727987 1329703811.538748 512 498 606 371 375 375
35.769509 1329703811.547675 512 498 606 373 373 376
35.769509 1329703811.555797 511 498 606 371 375 376
35.811056 1329703811.563770 510 498 606 370 376 376
35.811056 1329703811.572327 509 499 607 370 376 378
35.853115 1329703811.580730 509 499 607 372 376 378
35.853115 1329703811.592856 509 498 607 371 377 377
35.886307 1329703811.597494 507 498 607 368 378 376
35.886307 1329703811.605650 506 497 609 368 378 377
35.929180 1329703811.613821 505 498 608 372 376 379
35.929180 1329703811.622661 505 498 609 375 377 380
35.969455 1329703811.633715 505 498 609 371 377 381
35.969455 1329703811.639803 503 499 610 368 375 380
36.011670 1329703811.647152 502 501 609 366 370 379
36.011670 1329703811.657893 501 500 608 365 368 379
36.063891 1329703811.663658 502 498 608 367 367 381
36.063891 1329703811.675296 503 498 608 369 368 381
36.094498 1329703811.680616 503 500 607 373 371 383
36.094498 1329703811.688569 502 503 608 376 371 383
36.127567 1329703811.697418 503 502 608 375 373 382
36.127567 1329703811.706538 505 499 609 374 372 382
36.169158 1329703811.713875 507 498 609 378 370 383
36.169158 1329703811.722747 507 501 608 383 368 385
36.210686 1329703811.730763 507 503 607 383 367 384
36.210686 1329703811.739110 505 502 607 377 365 380
36.252151 1329703811.747351 506 496 608 372 362 380
36.252151 1329703811.755753 507 496 608 375 358 382
36.295114 1329703811.763573 506 501 606 378 357 383
36.295114 1329703811.778038 506 506 605 378 362 382
36.326943 1329703811.792797 510 500 604 372 368 378
36.326943 1329703811.814715 507 496 604 367 369 375
36.368713 1329703811.822361 505 496 604 367 368 374
36.368713 1329703811.830668 507 502 605 367 369 375
36.413566 1329703811.839200 509 500 605 361 374 374
36.413566 1329703811.847071 508 498 604 358 375 376
36.451881 1329703811.857616 510 499 604 355 372 376
36.451881 1329703811.864044 511 501 604 355 374 376
36.492832 1329703811.872421 513 500 605 350 375 374
36.492832 1329703811.880718 512 501 604 345 372 374
36.526997 1329703811.889192 513 500 603 347 369 375
36.526997 1329703811.897094 514 505 603 346 371 377
36.569974 1329703811.908969 516 508 603 336 375 376
36.569974 1329703811.914132 518 509 601 331 375 373
36.609725 1329703811.922703 514 510 600 330 376 370
36.609725 1329703811.930419 516 512 600 330 376 369
36.651235 1329703811.939377 518 512 599 321 383 368
36.651235 1329703811.947001 519 512 600 309 383 368
36.692470 1329703811.956089 518 515 600 302 381 372
36.692470 1329703811.963887 520 522 601 297 382 371
36.727741 1329703811.972801 524 526 600 288 384 366
36.727741 1329703811.980565 524 526 599 276 385 363
36.767349 1329703811.989496 526 528 599 267 384 364
36.767349 1329703811.997149 526 530 599 259 386 364
36.809456 1329703812.012682 524 532 599 255 389 364
36.809456 1329703812.015944 524 536 597 248 387 365
36.850836 1329703812.022852 525 538 594 241 379 367
36.850836 1329703812.030432 526 540 592 237 375 370
36.898950 1329703812.039493 525 544 591 239 374 375
36.898950 1329703812.046652 522 551 589 240 375 378
36.949168 1329703812.056139 524 557 586 242 373 381
36.949168 1329703812.063799 522 560 582 248 371 381
36.967352 1329703812.072732 520 562 580 252 370 382
36.967352 1329703812.080399 521 565 578 258 373 382
37.008607 1329703812.089460 520 568 577 269 375 382
37.008607 1329703812.096884 520 571 574 278 375 382
37.050461 1329703812.106175 518 575 573 288 374 381
37.050461 1329703812.113662 518 578 570 298 374 379
37.091521 1329703812.121935 517 580 569 310 376 378
37.091521 1329703812.130193 516 580 568 320 378 377
37.133257 1329703812.138713 514 582 567 332 378 378
37.133257 1329703812.146933 515 586 566 343 381 379
37.166573 1329703812.155415 516 588 567 354 383 378
37.166573 1329703812.163849 514 587 568 368 382 376
37.210663 1329703812.171481 515 589 567 380 383 378
37.210663 1329703812.180166 517 591 568 391 384 377
37.250070 1329703812.188594 517 591 571 408 387 375
37.250070 1329703812.196916 517 588 574 425 387 375
37.291653 1329703812.205161 519 585 577 441 383 373
37.291653 1329703812.221589 520 585 579 458 377 374
37.335019 1329703812.224378 519 582 580 473 371 371
37.335019 1329703812.230081 517 579 581 482 366 369
37.367025 1329703812.238666 517 576 583 484 366 368
37.367025 1329703812.246883 520 571 584 487 366 365
37.408950 1329703812.255168 520 565 586 490 366 364
37.408950 1329703812.263810 517 562 589 498 366 367
37.450031 1329703812.271484 516 561 590 501 368 367
37.450031 1329703812.280154 518 555 591 504 367 366
37.491932 1329703812.288856 516 550 593 507 366 368
37.491932 1329703812.296945 517 547 594 507 365 369
37.538020 1329703812.304878 519 542 594 501 369 369
37.538020 1329703812.313585 520 535 594 492 369 370
37.567081 1329703812.322198 518 531 597 487 371 373
37.567081 1329703812.330201 519 532 600 483 372 376
37.608314 1329703812.338498 519 531 600 479 371 373
37.608314 1329703812.346966 522 523 600 474 368 372
37.650383 1329703812.354992 523 518 599 467 363 373
37.650383 1329703812.363743 521 517 599 459 362 376
37.691565 1329703812.374960 522 514 599 452 363 375
37.691565 1329703812.379845 523 513 602 448 366 373
37.733438 1329703812.388380 525 515 602 438 370 371
37.733438 1329703812.396600 526 514 600 431 370 367
37.766800 1329703812.404952 523 509 599 431 368 363
37.766800 1329703812.413529 522 507 601 430 366 362
37.808591 1329703812.428127 525 508 601 420 365 362
37.808591 1329703812.431735 526 509 601 407 363 359
37.850144 1329703812.438495 521 505 603 398 360 353
37.850144 1329703812.446562 519 501 604 397 361 352
37.891968 1329703812.454950 517 498 603 392 363 352
37.891968 1329703812.463468 515 498 602 386 365 356
37.933586 1329703812.471096 511 499 604 383 366 360
37.933586 1329703812.480070 509 497 604 387 369 363
37.977337 1329703812.488392 511 496 603 392 372 361
37.977337 1329703812.496576 511 501 602 389 374 355
38.008585 1329703812.505175 507 505 604 383 376 352
38.008585 1329703812.513427 507 500 606 381 376 354
38.048848 1329703812.521398 505 494 605 385 377 356
38.048848 1329703812.538199 505 495 604 385 378 359
38.095884 1329703812.546896 504 501 604 377 378 361
38.095884 1329703812.554952 502 501 605 364 378 362
38.134039 1329703812.563167 504 496 605 359 378 365
38.134039 1329703812.571631 507 496 605 361 379 368
38.167225 1329703812.579506 506 504 606 363 381 368
38.167225 1329703812.596141 505 507 605 367 379 363
38.218693 1329703812.599268 502 502 604 367 375 364
38.218693 1329703812.605050 501 498 603 368 372 368
38.250722 1329703812.613185 499 499 604 373 377 371
38.250722 1329703812.622847 501 502 603 379 385 373
38.292668 1329703812.629613 499 502 601 380 390 372
38.292668 1329703812.638162 500 499 600 378 389 373
38.327923 1329703812.652539 499 499 599 375 389 375
38.327923 1329703812.673845 501 504 599 372 392 375
38.366799 1329703812.680328 502 506 602 367 393 369
38.366799 1329703812.687932 508 505 603 368 386 360
38.409256 1329703812.696559 508 501 604 370 378 352
38.409256 1329703812.705213 503 497 606 369 375 351
38.450707 1329703812.713301 499 495 608 363 376 355
38.450707 1329703812.722132 499 494 607 362 372 360
38.492208 1329703812.730263 500 498 607 364 369 363
38.492208 1329703812.738193 503 496 608 367 368 368
38.533935 1329703812.746481 499 500 610 372 373 371
38.533935 1329703812.755014 503 502 611 375 379 374
38.575250 1329703812.763216 500 498 611 377 379 373
38.575250 1329703812.771766 502 499 610 379 375 374
38.609025 1329703812.780117 501 501 610 377 373 375
38.609025 1329703812.788217 500 500 610 373 373 379
38.650300 1329703812.796789 503 498 608 375 373 379
38.650300 1329703812.804900 504 501 608 372 371 380
38.708020 1329703812.813354 504 503 610 370 371 378
38.708020 1329703812.821871 503 503 607 371 368 377
38.733561 1329703812.829909 505 498 606 370 369 375
38.733561 1329703812.838244 504 499 604 375 370 373
38.766808 1329703812.846438 504 502 604 374 372 373
38.766808 1329703812.854958 501 504 604 369 374 370
38.809063 1329703812.866345 500 503 604 364 377 369
38.809063 1329703812.871370 500 501 603 365 381 368
38.851709 1329703812.879929 503 502 603 368 384 369
38.851709 1329703812.888949 503 499 604 369 387 370
38.892115 1329703812.896406 502 500 605 372 384 373
38.892115 1329703812.908165 503 505 604 378 379 375
38.933243 1329703812.913262 504 507 605 378 380 373
38.933243 1329703812.921401 507 503 605 373 384 370
38.967434 1329703812.929815 506 500 606 373 383 369
38.967434 1329703812.938134 506 501 607 378 382 369
39.008291 1329703812.946094 507 504 606 380 382 371
39.008291 1329703812.954976 507 505 607 377 383 373
39.050703 1329703812.963149 508 503 607 373 381 371
39.050703 1329703812.972041 508 502 606 371 377 370
39.091720 1329703812.979384 508 503 605 371 377 370
39.091720 1329703812.988224 510 504 606 375 378 371
39.132616 1329703812.996114 509 505 607 374 379 372
39.132616 1329703813.015910 507 504 606 374 379 372
39.166867 1329703813.040434 506 503 605 372 375 372
39.166867 1329703813.046210 507 502 605 370 375 372
39.208207 1329703813.054250 506 503 605 370 378 372
39.208207 1329703813.063054 505 503 606 371 377 373
39.250223 1329703813.070741 504 503 606 375 377 372
39.250223 1329703813.079205 503 503 605 378 379 374
39.291213 1329703813.087851 503 503 605 381 381 374
39.291213 1329703813.095859 502 503 604 381 383 373
39.333023 1329703813.104339 503 504 604 383 383 374
39.333023 1329703813.112795 505 505 605 386 387 373
39.366401 1329703813.120988 506 504 605 383 389 372
39.366401 1329703813.129281 506 502 605 381 387 371
39.418551 1329703813.137598 506 502 606 378 385 372
39.418551 1329703813.145676 507 502 607 378 384 373
39.451891 1329703813.153740 508 502 607 374 384 373
39.451891 1329703813.162455 509 501 608 367 382 372
39.492084 1329703813.170511 509 501 608 361 379 372
39.492084 1329703813.178807 509 501 607 363 372 373
39.528049 1329703813.187196 509 502 607 365 375 374
39.528049 1329703813.195864 510 504 609 367 379 375
39.568318 1329703813.203511 510 503 609 371 381 374
39.568318 1329703813.212466 507 503 609 374 376 374
39.607896 1329703813.220674 507 505 609 378 373 374
39.607896 1329703813.235182 508 503 609 378 375 374
39.654360 1329703813.237921 509 502 611 378 376 372
39.654360 1329703813.245575 507 503 611 380 374 370
39.691723 1329703813.253448 504 504 610 381 369 370
39.691723 1329703813.262639 504 504 610 379 370 370
39.732457 1329703813.270665 503 502 612 376 370 368
39.732457 1329703813.279039 503 502 610 370 370 368
39.767033 1329703813.286978 504 502 609 369 368 366
39.767033 1329703813.295656 504 501 608 372 364 366
39.807472 1329703813.303621 505 503 609 374 363 367
39.807472 1329703813.312453 505 503 608 371 368 366
39.849035 1329703813.320774 504 503 606 368 366 365
39.849035 1329703813.328675 503 504 604 372 360 367
39.890709 1329703813.336778 508 508 602 379 360 369
39.890709 1329703813.345894 510 510 601 383 368 367
39.940462 1329703813.353713 511 507 601 385 378 363
39.940462 1329703813.362856 510 500 602 387 383 361
39.965660 1329703813.370623 506 496 602 394 380 368
39.965660 1329703813.377968 510 500 601 398 374 375
40.007972 1329703813.393670 514 507 600 393 380 376
40.007972 1329703813.397036 517 505 600 385 390 368
40.048407 1329703813.403000 513 499 602 379 394 362
40.048407 1329703813.411539 514 497 604 374 387 364
40.089934 1329703813.420207 514 499 604 374 381 366
40.089934 1329703813.428093 514 505 604 371 380 366
40.131863 1329703813.436540 514 504 604 366 384 364
40.131863 1329703813.445497 519 502 605 356 383 356
40.173072 1329703813.452974 516 500 606 347 377 353
40.173072 1329703813.462610 517 499 605 343 368 354
40.207883 1329703813.469932 519 501 605 343 367 358
40.207883 1329703813.479692 520 503 606 340 370 358
40.257306 1329703813.486263 521 503 605 335 370 356
40.257306 1329703813.498448 519 504 605 334 366 356
40.289642 1329703813.502901 518 506 604 335 363 356
40.289642 1329703813.511325 516 507 604 335 364 356
40.336257 1329703813.520014 515 509 602 335 364 357
40.336257 1329703813.527923 514 510 603 337 364 358
40.372720 1329703813.543763 512 511 602 340 364 357
40.372720 1329703813.555897 513 514 601 337 367 358
40.406260 1329703813.569592 513 516 601 332 373 359
40.406260 1329703813.592884 513 514 600 332 379 361
40.450705 1329703813.604294 514 515 600 340 380 363
40.450705 1329703813.611217 517 518 599 341 381 366
40.489115 1329703813.619649 518 520 601 337 382 367
40.489115 1329703813.628232 519 522 600 331 381 367
40.530376 1329703813.636382 523 524 601 321 381 368
40.530376 1329703813.644878 523 525 602 309 383 364
40.570792 1329703813.653452 523 525 602 300 379 365
40.570792 1329703813.661547 523 529 602 292 375 364
40.605816 1329703813.672354 522 531 602 284 375 362
40.605816 1329703813.678329 520 534 603 278 376 362
40.647327 1329703813.686830 520 539 601 271 375 362
40.647327 1329703813.695685 518 543 599 266 372 362
40.693535 1329703813.703669 518 545 599 260 371 362
40.693535 1329703813.711556 517 544 600 256 367 363
40.735541 1329703813.722343 515 544 599 251 361 367
40.735541 1329703813.728727 514 545 595 244 351 371
40.772041 1329703813.736355 511 549 592 241 341 374
40.772041 1329703813.744858 511 556 587 238 339 374
40.813595 1329703813.753300 509 560 583 238 338 375
40.813595 1329703813.772183 507 564 579 245 338 378
40.847576 1329703813.775703 506 568 575 249 335 378
40.847576 1329703813.778136 503 574 571 256 336 379
40.888270 1329703813.786454 500 577 567 269 343 381
40.888270 1329703813.803971 498 581 564 286 350 382
40.940314 1329703813.818886 501 586 561 305 358 383
40.940314 1329703813.821591 500 587 560 329 363 381
40.973122 1329703813.864310 498 588 559 351 368 380
40.973122 1329703813.869472 499 589 560 372 374 379
41.008502 1329703813.877943 499 588 560 390 379 377
41.008502 1329703813.886943 499 585 561 406 384 376
41.046357 1329703813.894776 501 586 562 423 386 377
41.046357 1329703813.902887 501 586 565 441 389 376
41.092549 1329703813.914744 502 584 569 457 393 377
41.092549 1329703813.919321 503 581 572 472 395 376
41.171341 1329703813.927800 507 569 581 503 391 372
41.171341 1329703813.936702 508 566 585 510 391 373
41.211409 1329703813.944937 509 563 588 511 390 372
41.211409 1329703813.952943 512 558 589 510 389 373
41.246743 1329703813.968998 512 552 591 506 388 373
41.246743 1329703813.971724 512 549 593 501 390 375
41.292587 1329703813.978235 513 547 597 497 392 373
41.292587 1329703813.986752 516 545 599 497 390 371
41.330030 1329703813.995401 515 541 601 493 386 370
41.330030 1329703814.003342 516 538 603 482 383 370
41.371896 1329703814.011629 518 534 602 470 382 369
41.371896 1329703814.019990 517 529 603 461 379 366
41.414188 1329703814.028499 520 525 604 456 376 368
41.414188 1329703814.037102 519 527 604 455 376 367
41.453720 1329703814.045071 518 524 603 450 374 366
41.453720 1329703814.053183 519 522 602 441 370 366
41.488736 1329703814.061829 521 520 601 432 369 367
41.488736 1329703814.074088 520 516 600 430 371 368
41.530133 1329703814.078088 519 510 601 429 373 369
41.530133 1329703814.086970 520 511 601 427 378 370
41.571570 1329703814.094994 523 518 601 420 380 369
41.571570 1329703814.103465 521 516 602 417 380 367
41.606910 1329703814.114558 518 506 603 420 377 367
41.606910 1329703814.120152 520 503 602 418 377 366
41.646499 1329703814.128174 521 507 602 410 380 365
41.646499 1329703814.137965 520 508 603 401 379 365
41.688450 1329703814.145335 516 504 603 398 376 366
41.688450 1329703814.153182 515 502 603 393 376 365
41.731017 1329703814.161700 515 506 603 392 381 365
41.731017 1329703814.169917 518 509 605 391 386 361
41.767522 1329703814.178074 516 503 605 392 385 361
41.767522 1329703814.187093 516 497 605 389 385 361
41.817009 1329703814.195122 515 498 605 388 385 360
41.817009 1329703814.203050 513 500 606 387 384 362
41.847004 1329703814.211738 510 499 606 386 381 365
41.847004 1329703814.219994 510 498 607 383 384 369
41.894010 1329703814.228727 509 498 606 377 388 368
41.894010 1329703814.236833 509 498 606 372 387 366
41.929887 1329703814.245176 508 497 606 368 382 370
41.929887 1329703814.253026 506 498 607 368 382 374
41.971469 1329703814.264960 508 500 607 370 385 376
41.971469 1329703814.269954 510 503 605 373 387 374
42.005693 1329703814.278008 512 505 604 376 388 370
42.005693 1329703814.286629 513 504 603 380 385 367
42.046739 1329703814.295053 510 503 603 383 384 367
42.046739 1329703814.302966 508 496 603 387 384 369
42.088064 1329703814.311869 507 498 603 388 383 374
42.088064 1329703814.319866 510 503 602 385 385 375
42.130105 1329703814.328191 509 501 603 385 385 372
42.130105 1329703814.336426 507 497 604 387 385 371
42.171384 1329703814.345288 509 495 605 384 390 372
42.171384 1329703814.352737 508 497 605 374 395 372
42.213577 1329703814.365660 507 499 605 368 390 371
42.213577 1329703814.372692 508 502 607 367 384 370
42.246379 1329703814.378711 505 498 608 372 383 368
42.246379 1329703814.386796 508 493 609 379 386 370
42.287918 1329703814.394933 509 495 609 379 385 373
42.287918 1329703814.403594 510 496 607 379 384 372
42.327095 1329703814.422599 510 497 607 379 381 369
42.327095 1329703814.428054 510 497 607 382 380 368
42.374521 1329703814.436276 513 496 608 383 378 368
42.374521 1329703814.445030 513 494 607 383 377 371
42.412536 1329703814.453195 512 494 605 379 377 372
42.412536 1329703814.461261 509 495 605 374 378 372
42.446158 1329703814.469618 509 494 605 368 379 373
42.446158 1329703814.477893 511 494 605 366 381 372
42.488282 1329703814.486717 514 496 604 367 383 372
42.488282 1329703814.494895 516 496 605 367 388 371
42.529754 1329703814.503121 514 497 608 364 389 370
42.529754 1329703814.511371 509 496 609 365 387 369
42.570887 1329703814.519895 510 496 610 372 379 370
42.570887 1329703814.541855 510 496 611 374 372 373
42.612747 1329703814.555770 508 496 613 369 370 374
42.612747 1329703814.570895 505 497 614 367 371 372
42.646316 1329703814.578263 497 498 617 364 371 370
42.646316 1329703814.586265 489 499 619 363 367 367
42.691067 1329703814.594549 482 501 622 358 367 365
42.691067 1329703814.602803 475 501 626 352 369 362
42.729668 1329703814.611450 475 499 630 352 371 363
42.729668 1329703814.619699 471 505 634 358 370 362
42.769148 1329703814.627850 467 511 634 367 361 357
42.769148 1329703814.636357 468 512 632 368 351 351
42.816579 1329703814.644407 473 509 630 353 340 348
42.816579 1329703814.661065 480 507 627 342 328 350
42.846179 1329703814.696052 482 512 620 340 317 350
42.846179 1329703814.710723 487 516 616 339 315 346
42.887823 1329703814.713764 489 508 609 336 314 339
42.887823 1329703814.719743 493 496 603 339 304 346
42.929540 1329703814.727639 499 497 596 350 301 361
42.929540 1329703814.736413 512 505 594 346 321 365
42.975653 1329703814.744674 518 516 593 317 348 362
42.975653 1329703814.753056 531 509 591 272 355 353
43.011880 1329703814.761171 553 499 590 230 363 346
43.011880 1329703814.769856 554 504 592 178 382 348
43.053627 1329703814.777948 549 516 594 123 391 354
43.053627 1329703814.786319 558 528 592 80 387 358
43.086146 1329703814.802207 557 533 588 47 376 354
43.086146 1329703814.805366 552 529 586 37 366 357
43.132500 1329703814.811205 549 527 585 56 366 372
43.132500 1329703814.819893 533 546 578 106 362 393
43.168906 1329703814.827739 526 580 566 169 348 398
43.168906 1329703814.836259 528 594 556 236 336 395
43.210837 1329703814.844268 524 593 549 310 327 396
43.210837 1329703814.853101 521 591 544 377 320 396
43.264097 1329703814.861926 515 593 543 439 323 393
43.264097 1329703814.869487 511 593 544 485 335 389
43.286196 1329703814.877657 510 589 548 526 351 385
43.286196 1329703814.886345 514 585 554 565 359 382
43.335504 1329703814.894491 520 579 560 603 365 382
43.335504 1329703814.905113 527 569 567 629 373 382
43.369880 1329703814.910819 529 560 573 640 389 383
43.369880 1329703814.919097 534 554 580 630 404 379
43.411500 1329703814.927664 544 546 585 606 408 377
43.411500 1329703814.936189 542 531 589 581 410 373
43.453427 1329703814.944256 538 518 592 567 407 373
43.453427 1329703814.956135 538 516 593 543 408 373
43.486363 1329703814.961166 532 513 595 510 404 369
43.486363 1329703814.969392 530 511 595 483 395 366
43.528485 1329703814.977362 522 511 596 461 392 362
43.528485 1329703814.986412 512 510 597 439 396 359
43.570054 1329703814.994164 507 509 599 418 403 358
43.570054 1329703815.002730 508 507 599 411 401 357
43.611838 1329703815.011017 493 504 604 406 400 358
43.611838 1329703815.019426 482 500 608 396 409 363
43.648667 1329703815.027977 491 502 609 385 422 364
43.648667 1329703815.036158 498 503 609 376 426 360
43.687380 1329703815.047953 496 501 613 373 420 358
43.687380 1329703815.052988 486 498 617 379 413 362
43.732143 1329703815.061253 483 499 618 383 414 372
43.732143 1329703815.069339 491 504 619 386 418 379
43.770094 1329703815.077625 499 507 620 386 417 378
43.770094 1329703815.086170 503 506 619 383 408 374
43.811614 1329703815.101724 500 500 620 380 399 373
43.811614 1329703815.117349 501 495 621 376 396 373
43.853586 1329703815.131531 505 497 620 377 394 372
43.853586 1329703815.136013 509 502 618 380 393 369
43.886674 1329703815.144233 514 499 617 383 391 368
43.886674 1329703815.152682 513 497 617 385 387 371
43.931928 1329703815.161376 514 501 617 388 379 374
43.931928 1329703815.169068 514 504 615 389 370 374
43.969671 1329703815.177627 517 505 611 386 365 371
43.969671 1329703815.185901 521 503 611 376 367 368
44.011507 1329703815.193855 521 502 611 369 369 363
44.011507 1329703815.202336 521 499 610 370 369 359
44.053230 1329703815.210457 516 498 608 372 367 361
44.053230 1329703815.219372 509 498 607 375 363 364
44.086673 1329703815.227509 508 498 607 376 360 370
44.086673 1329703815.236123 511 500 605 376 362 375
44.128012 1329703815.243924 514 500 603 374 370 375
44.128012 1329703815.252531 514 500 603 372 377 372
44.169811 1329703815.262584 513 499 604 371 380 372
44.169811 1329703815.270250 512 499 605 372 380 374
44.212614 1329703815.277535 514 502 606 376 378 374
44.212614 1329703815.285878 515 502 607 376 381 371
44.252977 1329703815.293737 514 501 609 377 380 371
44.252977 1329703815.309978 512 501 610 378 378 371
44.286286 1329703815.312879 509 502 611 379 377 370
44.286286 1329703815.319185 508 502 612 379 375 368
44.328138 1329703815.327466 506 502 613 375 372 368
44.328138 1329703815.335902 506 503 613 370 368 368
44.369699 1329703815.344070 504 503 614 371 368 369
44.369699 1329703815.352180 505 503 615 371 371 369
44.411361 1329703815.362227 503 503 615 368 373 367
44.411361 1329703815.369116 502 502 615 364 367 365
44.453079 1329703815.377160 503 499 614 364 361 365
44.453079 1329703815.386054 504 503 614 367 359 367
44.488908 1329703815.393705 505 507 616 368 365 367
44.488908 1329703815.402372 507 504 615 367 364 365
44.530901 1329703815.410792 506 499 613 370 354 363
44.530901 1329703815.419361 507 498 612 377 347 367
44.569309 1329703815.427583 511 502 612 381 351 370
44.569309 1329703815.435702 514 505 610 382 355 369
44.611238 1329703815.443662 512 504 607 378 354 366
44.611238 1329703815.452279 514 499 607 377 356 365
44.652669 1329703815.467913 515 498 607 373 359 366
44.652669 1329703815.471453 513 502 606 370 358 369
44.686299 1329703815.477533 516 505 602 365 355 367
44.686299 1329703815.485932 515 505 599 355 357 363
44.728587 1329703815.493757 518 505 601 339 364 360
44.728587 1329703815.502675 516 505 603 325 365 357
44.769425 1329703815.510491 518 501 603 316 361 352
44.769425 1329703815.519387 520 502 601 302 359 352
44.810771 1329703815.527228 522 508 600 280 357 354
44.810771 1329703815.535595 525 512 599 251 356 354
44.852434 1329703815.543663 529 514 599 231 359 351
44.852434 1329703815.552139 525 518 599 218 363 352
44.893491 1329703815.560573 524 522 597 206 364 354
44.893491 1329703815.579656 524 527 595 193 360 357
44.930260 1329703815.585730 527 533 592 184 358 360
44.930260 1329703815.593951 523 538 589 180 357 363
44.968575 1329703815.601927 522 542 586 183 358 366
44.968575 1329703815.611566 521 547 583 192 359 367
45.009743 1329703815.618746 518 552 580 201 359 369
45.009743 1329703815.635823 515 556 577 213 359 373
45.051002 1329703815.648733 514 561 575 228 361 379
45.051002 1329703815.652243 515 570 570 245 360 381
45.093058 1329703815.660505 512 575 568 264 361 380
45.093058 1329703815.668785 510 576 566 286 365 380
45.131434 1329703815.678009 509 578 565 307 367 381
