imu_t vicon_t accel_x accel_y accel_z gyro_x gyro_y gyro_z
0.073310 1329948742.245749 503 502 605 374 376 370
0.073310 1329948742.579237 504 502 605 375 376 370
0.073310 1329948742.711995 504 502 605 375 375 370
0.073310 1329948742.720084 504 502 605 374 376 370
0.073310 1329948742.728480 504 502 605 374 376 370
0.073310 1329948742.736690 504 502 605 374 376 370
0.073310 1329948742.744902 503 502 604 374 376 370
0.073310 1329948742.753496 503 502 605 373 375 370
0.073310 1329948742.761808 504 502 604 374 376 370
0.073310 1329948742.777106 503 502 604 374 377 371
0.073310 1329948742.781371 504 502 605 375 376 370
0.073310 1329948742.786835 504 502 605 374 375 370
0.073310 1329948742.795124 503 502 606 374 376 370
0.073310 1329948742.819757 504 502 604 374 376 371
0.073310 1329948742.832295 504 502 605 375 376 370
0.073310 1329948742.836635 504 502 605 374 375 369
0.073310 1329948742.845108 504 502 605 375 376 370
0.073310 1329948742.860114 503 502 605 373 376 371
0.073310 1329948742.871632 504 502 605 374 377 370
0.073310 1329948742.878319 504 502 605 374 376 370
0.073310 1329948742.887102 504 502 605 374 376 370
0.073310 1329948742.894908 504 502 605 374 376 370
0.073310 1329948742.903413 504 502 606 374 376 370
0.073310 1329948742.911365 503 502 605 375 377 370
0.073310 1329948742.920033 504 502 605 374 377 369
0.073310 1329948742.927906 504 502 605 374 377 370
0.073310 1329948742.936768 504 502 605 375 376 371
0.073310 1329948742.944877 504 502 605 375 376 370
0.073310 1329948742.953411 504 502 605 374 376 369
0.073310 1329948742.961612 504 502 605 374 376 370
0.073310 1329948742.970255 504 502 605 375 376 369
0.073310 1329948742.977949 504 502 605 374 376 369
0.073310 1329948742.986554 503 502 604 375 376 371
0.073310 1329948742.994807 504 502 605 374 375 371
0.073310 1329948743.003334 504 502 604 374 377 370
0.073310 1329948743.013714 504 502 605 374 377 370
0.073310 1329948743.019941 504 502 605 374 376 371
0.073310 1329948743.027800 504 502 605 373 376 369
0.073310 1329948743.036733 503 502 605 374 377 370
0.073310 1329948743.044717 504 502 605 374 377 370
0.073310 1329948743.053225 504 502 606 374 376 370
0.073310 1329948743.061474 504 502 605 374 375 370
0.364826 1329948743.070285 504 502 605 375 376 370
0.364826 1329948743.077872 504 502 605 374 376 370
0.364826 1329948743.086191 504 502 605 375 376 371
0.364826 1329948743.094870 503 502 606 374 376 369
0.364826 1329948743.103115 503 502 605 374 376 370
0.364826 1329948743.113737 503 502 605 374 376 370
0.422782 1329948743.119848 504 502 605 375 376 370
0.422782 1329948743.127931 503 502 605 374 376 370
0.422782 1329948743.136635 503 502 605 373 376 370
0.422782 1329948743.144690 504 502 605 373 377 370
0.422782 1329948743.153141 504 502 605 374 376 369
0.422782 1329948743.161041 504 502 605 374 376 370
0.481441 1329948743.169893 504 502 605 374 376 370
0.481441 1329948743.177793 504 502 605 374 376 370
0.481441 1329948743.186188 504 502 605 373 376 371
0.481441 1329948743.194542 504 502 605 373 376 370
0.481441 1329948743.203087 504 502 605 374 376 371
0.481441 1329948743.210674 504 502 605 375 376 371
0.539840 1329948743.219243 503 502 605 374 376 371
0.539840 1329948743.227655 503 502 605 374 375 370
0.539840 1329948743.235854 503 502 605 374 376 369
0.539840 1329948743.244399 504 502 605 375 376 370
0.539840 1329948743.252377 503 502 605 374 376 370
0.539840 1329948743.260919 503 502 605 374 376 371
0.597873 1329948743.269608 504 502 605 374 377 370
0.597873 1329948743.277713 504 502 604 374 376 369
0.597873 1329948743.286067 504 502 605 375 375 371
0.597873 1329948743.294246 504 502 605 375 376 369
0.597873 1329948743.302372 504 502 606 374 376 371
0.597873 1329948743.312775 504 502 604 374 376 370
0.664509 1329948743.319053 503 502 605 374 376 371
0.664509 1329948743.327501 504 502 605 375 375 370
0.664509 1329948743.338167 503 502 605 375 376 370
0.664509 1329948743.344159 504 502 605 373 376 371
0.664509 1329948743.351924 504 502 605 374 376 370
0.664509 1329948743.373652 504 502 605 375 376 371
0.722840 1329948743.396351 504 502 605 374 377 370
0.722840 1329948743.419114 503 502 605 375 377 371
0.722840 1329948743.442254 504 502 605 374 376 371
0.722840 1329948743.455642 504 502 605 374 376 371
0.722840 1329948743.467568 504 502 605 375 377 370
0.722840 1329948743.481942 504 502 605 374 377 370
0.780908 1329948743.504828 504 502 605 374 376 369
0.780908 1329948743.516932 504 502 605 375 376 371
0.780908 1329948743.521417 504 502 606 374 376 369
0.780908 1329948743.527645 504 502 605 374 375 371
0.780908 1329948743.535521 504 502 604 373 375 370
0.780908 1329948743.544352 504 502 605 375 376 370
0.839236 1329948743.552539 504 502 605 374 376 371
0.839236 1329948743.565133 504 502 605 375 376 370
0.839236 1329948743.569387 504 502 605 374 377 369
0.839236 1329948743.577733 504 502 605 373 376 370
0.839236 1329948743.585503 503 503 605 374 375 370
0.839236 1329948743.594222 504 502 605 373 376 370
0.889223 1329948743.602348 503 503 605 374 376 371
0.889223 1329948743.611618 503 502 605 374 375 372
0.889223 1329948743.619031 504 502 605 374 375 370
0.889223 1329948743.627532 503 502 605 375 376 370
0.922210 1329948743.635636 504 502 605 374 376 370
0.922210 1329948743.643883 503 503 606 374 376 370
0.947702 1329948743.652273 504 501 606 374 376 371
0.999395 1329948743.660608 504 503 606 374 376 371
0.999395 1329948743.668989 503 502 605 374 375 370
1.022218 1329948743.677150 503 502 605 373 376 370
1.045309 1329948743.685349 503 502 605 374 377 371
1.045309 1329948743.693526 504 502 605 374 376 370
1.070825 1329948743.702055 505 503 605 374 376 370
1.107970 1329948743.710614 504 502 605 375 376 370
1.107970 1329948743.720631 503 502 604 374 376 370
1.130641 1329948743.726987 503 502 605 375 376 371
1.168224 1329948743.735290 504 502 605 374 378 370
1.168224 1329948743.743810 504 503 605 374 377 370
1.188657 1329948743.751832 504 502 605 374 376 370
1.222015 1329948743.760524 504 502 605 374 376 370
1.222015 1329948743.779266 503 502 605 374 375 370
1.255290 1329948743.785537 503 502 605 374 376 370
1.280319 1329948743.793362 503 502 605 374 375 370
1.280319 1329948743.802188 503 502 605 375 376 369
1.313739 1329948743.810137 505 502 604 374 376 371
1.338334 1329948743.818720 504 502 605 374 375 370
1.338334 1329948743.826875 504 502 604 374 376 369
1.382370 1329948743.835198 503 502 605 374 376 371
1.396354 1329948743.843158 503 502 605 373 376 370
1.396354 1329948743.851825 504 502 606 373 376 370
1.430120 1329948743.859906 504 502 605 374 376 370
1.462920 1329948743.868282 504 502 605 374 376 370
1.462920 1329948743.876564 503 502 605 374 377 370
1.499964 1329948743.896899 503 502 605 374 376 370
1.521263 1329948743.901377 503 502 605 375 376 370
1.521263 1329948743.909918 504 502 605 374 376 370
1.554243 1329948743.918168 504 502 605 374 376 369
1.579324 1329948743.926631 504 502 606 374 376 370
1.579324 1329948743.934758 503 502 605 374 376 369
1.612614 1329948743.951022 503 502 605 374 377 370
1.637818 1329948743.963468 503 502 607 374 376 370
1.637818 1329948743.968228 504 502 606 374 376 370
1.667625 1329948743.976338 504 502 605 375 377 370
1.714872 1329948743.985007 504 502 605 374 376 371
1.714872 1329948743.993220 503 502 605 374 376 370
1.729065 1329948744.001459 503 502 605 374 376 371
1.762650 1329948744.009589 504 502 605 374 377 371
1.762650 1329948744.018017 504 503 605 374 377 369
1.788128 1329948744.026325 504 502 605 374 375 370
1.821400 1329948744.034845 503 502 604 374 375 369
1.821400 1329948744.043156 503 503 605 374 376 370
1.848460 1329948744.051488 504 502 605 375 376 370
1.879901 1329948744.064454 505 503 605 373 376 369
1.879901 1329948744.076369 503 502 605 374 375 370
1.913179 1329948744.080127 502 502 605 375 375 370
1.954649 1329948744.111655 502 502 605 374 376 370
1.954649 1329948744.122436 504 502 605 374 376 370
1.991381 1329948744.126101 505 502 605 375 376 371
1.991381 1329948744.139136 504 502 605 375 375 370
2.029801 1329948744.152664 503 503 605 374 376 371
2.029801 1329948744.159680 503 502 604 375 376 370
2.071078 1329948744.168260 503 502 605 374 376 371
2.071078 1329948744.176437 504 502 605 374 376 371
2.112732 1329948744.184998 504 502 605 374 376 371
2.112732 1329948744.192943 504 502 605 374 376 370
2.155067 1329948744.201645 504 502 605 374 376 370
2.155067 1329948744.209780 503 502 605 375 375 370
2.188010 1329948744.218346 503 502 605 375 377 370
2.188010 1329948744.226445 503 502 605 374 377 371
2.231471 1329948744.245300 505 502 605 374 375 371
2.231471 1329948744.247143 504 502 606 375 376 370
2.270694 1329948744.261500 503 502 605 375 376 371
2.270694 1329948744.268922 503 502 604 374 375 370
2.313463 1329948744.276771 503 502 605 374 376 370
2.313463 1329948744.285114 504 502 605 374 376 370
2.355950 1329948744.293310 504 502 605 374 375 370
2.355950 1329948744.301199 504 502 605 374 376 370
2.395767 1329948744.310179 503 502 605 374 377 371
2.395767 1329948744.318252 503 502 606 374 377 370
2.428673 1329948744.326567 504 502 604 374 377 371
2.428673 1329948744.335058 504 502 605 374 376 371
2.470599 1329948744.343354 503 502 605 374 376 370
2.470599 1329948744.351535 503 502 606 374 375 370
2.520393 1329948744.362459 504 502 605 374 377 371
2.520393 1329948744.376569 504 502 605 374 376 369
2.553780 1329948744.388327 504 502 605 373 376 370
2.553780 1329948744.393506 503 502 605 374 375 369
2.595131 1329948744.401822 503 502 604 374 376 370
2.595131 1329948744.409537 503 502 605 374 376 369
2.631401 1329948744.418272 503 502 605 375 377 370
2.631401 1329948744.426659 504 502 605 374 376 371
2.670487 1329948744.434822 504 502 605 375 376 371
2.670487 1329948744.443304 504 502 605 375 376 371
2.711953 1329948744.451871 504 503 604 373 375 371
2.711953 1329948744.459890 503 502 605 374 376 370
2.758491 1329948744.468088 503 502 605 375 376 371
2.795127 1329948744.476979 504 502 605 374 377 370
2.828659 1329948744.484951 503 502 604 374 376 370
2.872150 1329948744.493405 504 502 605 375 376 370
2.911131 1329948744.501605 504 502 605 374 376 369
2.953206 1329948744.509647 503 502 604 374 376 370
2.994276 1329948744.518088 503 502 605 374 376 371
3.019524 1329948744.529108 504 502 605 374 376 371
3.053159 1329948744.534854 503 502 604 373 375 370
3.097579 1329948744.543300 502 502 605 375 376 369
3.097579 1329948744.551902 503 502 605 374 376 370
3.127939 1329948744.559780 504 502 605 375 376 371
3.127939 1329948744.568096 505 502 605 374 376 371
3.169468 1329948744.578288 504 502 605 374 376 370
3.169468 1329948744.584873 503 502 605 374 376 370
3.211123 1329948744.593216 502 502 605 375 376 370
3.211123 1329948744.601762 503 502 605 374 376 371
3.252591 1329948744.609581 505 502 605 374 376 370
3.252591 1329948744.617957 505 502 605 373 375 370
3.293914 1329948744.628385 505 502 605 375 376 370
3.293914 1329948744.640000 503 502 605 375 376 371
3.327579 1329948744.654143 502 502 605 374 376 370
3.327579 1329948744.660963 503 502 605 375 377 370
3.369189 1329948744.667732 504 502 605 374 377 371
3.369189 1329948744.675972 505 502 606 375 376 370
3.410613 1329948744.688311 505 502 605 374 376 371
3.410613 1329948744.692646 503 502 605 374 376 369
3.452378 1329948744.701014 503 502 605 374 376 371
3.452378 1329948744.710255 502 502 605 375 376 371
3.493651 1329948744.717508 504 502 605 374 376 370
3.493651 1329948744.725806 505 502 605 373 377 370
3.528339 1329948744.736349 504 502 606 375 375 371
3.528339 1329948744.742800 503 502 605 374 376 370
3.568872 1329948744.752843 502 502 605 374 376 370
3.568872 1329948744.759306 503 502 605 374 376 370
3.623633 1329948744.776111 504 502 605 375 376 371
3.623633 1329948744.778276 504 502 605 374 376 370
3.647901 1329948744.784492 504 502 605 375 376 370
3.647901 1329948744.792633 504 502 605 374 376 370
3.693694 1329948744.800872 503 502 605 373 376 370
3.693694 1329948744.809251 503 502 605 374 377 370
3.744335 1329948744.817570 504 502 605 374 376 370
3.744335 1329948744.825685 504 502 605 375 376 371
3.771021 1329948744.834270 504 502 605 374 376 370
3.771021 1329948744.842606 503 502 605 374 376 369
3.810256 1329948744.851094 502 502 604 374 375 371
3.810256 1329948744.859192 503 503 605 374 376 370
3.852283 1329948744.867532 505 502 605 374 375 371
3.852283 1329948744.878113 504 502 605 374 376 370
3.893635 1329948744.883977 504 502 605 374 377 370
3.893635 1329948744.903211 504 502 606 374 375 371
3.935418 1329948744.917188 503 502 604 373 375 370
3.935418 1329948744.919350 502 502 605 372 377 371
3.968463 1329948744.925999 503 502 605 374 378 369
3.968463 1329948744.934183 505 502 605 374 379 371
4.011991 1329948744.942270 503 503 604 375 385 369
4.011991 1329948744.950680 502 501 603 375 396 371
4.051760 1329948744.958911 503 502 605 375 403 371
4.051760 1329948744.967620 506 504 605 376 406 371
4.091000 1329948744.975909 510 507 611 380 411 372
4.091000 1329948744.984175 511 515 609 378 411 379
4.130656 1329948744.992133 516 510 607 376 419 384
4.130656 1329948745.000455 514 514 608 382 429 391
4.168184 1329948745.009161 515 521 616 385 439 387
4.168184 1329948745.028219 523 519 623 389 446 379
4.210321 1329948745.035386 529 518 630 390 447 377
4.210321 1329948745.042326 533 517 633 390 439 377
4.251742 1329948745.050463 533 515 637 385 396 377
4.294474 1329948745.058817 532 513 637 385 370 372
4.334786 1329948745.067425 534 511 627 384 348 380
4.365871 1329948745.081981 529 508 621 380 354 384
4.388293 1329948745.084216 526 502 618 379 361 384
4.435176 1329948745.092291 529 502 616 381 368 383
4.435176 1329948745.100436 527 499 611 383 375 383
4.459948 1329948745.108788 522 497 603 374 394 374
4.493492 1329948745.117288 520 498 602 373 395 372
4.529076 1329948745.126807 522 500 600 369 388 368
4.529076 1329948745.133902 524 499 599 363 377 364
4.569832 1329948745.144176 523 497 593 357 358 356
4.592676 1329948745.155429 519 493 593 362 359 353
4.633345 1329948745.158507 519 489 589 365 362 353
4.633345 1329948745.169041 517 490 585 366 367 357
4.669790 1329948745.175621 516 498 590 370 387 349
4.695895 1329948745.183606 511 493 590 375 396 343
4.735127 1329948745.192104 513 490 589 374 401 341
4.735127 1329948745.199999 518 492 592 377 403 343
4.768555 1329948745.208486 520 496 594 386 399 344
4.768555 1329948745.216509 522 492 593 390 391 348
4.809888 1329948745.225530 521 490 593 393 381 348
4.809888 1329948745.233638 520 492 599 384 372 346
4.851482 1329948745.241771 515 491 599 379 361 351
4.851482 1329948745.250051 520 491 596 379 351 356
4.892985 1329948745.258448 519 491 600 383 346 359
4.892985 1329948745.269040 518 491 600 390 345 360
4.934924 1329948745.280283 517 486 597 386 346 360
4.934924 1329948745.285032 510 484 596 377 352 362
4.968195 1329948745.296409 513 490 596 373 358 366
4.968195 1329948745.299795 514 491 598 375 366 366
5.009747 1329948745.308006 510 489 602 380 372 366
5.009747 1329948745.326739 509 491 601 383 374 369
5.047343 1329948745.339920 512 493 601 383 373 372
5.047343 1329948745.341629 512 490 600 384 371 373
5.098645 1329948745.350015 506 487 604 386 367 372
5.098645 1329948745.358256 514 490 608 382 368 375
5.130892 1329948745.366200 507 488 602 380 365 375
5.130892 1329948745.374969 507 488 602 382 362 379
5.172835 1329948745.383839 509 489 604 380 361 380
5.172835 1329948745.391194 505 489 604 381 364 379
5.210197 1329948745.400005 507 486 603 378 363 378
5.210197 1329948745.408402 509 487 601 377 361 377
5.252003 1329948745.416485 509 489 601 376 360 378
5.252003 1329948745.424989 509 488 604 378 363 377
5.299839 1329948745.433212 508 487 604 376 364 376
5.299839 1329948745.441328 508 488 603 375 364 374
5.327602 1329948745.450061 510 490 602 376 361 375
5.327602 1329948745.458448 510 491 602 379 359 376
5.368154 1329948745.466369 513 487 599 383 360 376
5.368154 1329948745.474994 511 491 602 383 367 378
5.410008 1329948745.494288 508 491 603 375 374 376
5.410008 1329948745.504939 511 488 600 373 378 375
5.451616 1329948745.512097 509 488 597 372 382 376
5.451616 1329948745.516399 507 490 596 371 384 376
5.493941 1329948745.524842 508 492 598 370 389 375
5.493941 1329948745.533178 510 497 603 375 400 379
5.534720 1329948745.541186 511 494 603 373 404 381
5.534720 1329948745.549871 512 489 604 369 401 381
5.568074 1329948745.558331 512 491 606 364 396 382
5.568074 1329948745.566316 512 492 607 360 391 381
5.610106 1329948745.574624 514 493 610 360 387 382
5.610106 1329948745.583008 515 496 613 359 384 382
5.651861 1329948745.591082 515 495 609 362 377 382
5.651861 1329948745.599869 513 495 606 370 366 379
5.693657 1329948745.608009 514 496 606 374 357 378
5.693657 1329948745.616264 513 497 607 377 352 377
5.735249 1329948745.624639 513 497 607 379 352 375
5.735249 1329948745.632843 513 495 609 377 352 373
5.768353 1329948745.641239 512 497 609 376 357 371
5.768353 1329948745.649522 511 498 608 368 363 368
5.810087 1329948745.658441 510 500 606 359 374 366
5.810087 1329948745.666035 510 499 605 355 383 367
5.858579 1329948745.674478 512 499 604 360 390 367
5.858579 1329948745.682972 513 500 604 366 394 367
5.896709 1329948745.690910 510 501 605 365 382 367
5.934613 1329948745.699488 513 501 604 366 373 374
5.968052 1329948745.707911 513 499 605 381 362 370
6.009650 1329948745.715992 509 500 603 381 358 369
6.043515 1329948745.724474 508 496 603 378 363 369
6.069241 1329948745.746764 507 497 604 378 369 369
6.109707 1329948745.759872 508 496 604 375 375 370
6.109707 1329948745.766106 508 496 604 372 381 369
6.136506 1329948745.774484 507 495 600 368 384 364
6.168289 1329948745.782499 509 495 598 375 376 364
6.210994 1329948745.790990 510 496 601 384 370 364
6.210994 1329948745.799214 511 497 602 393 374 363
6.245605 1329948745.807449 498 490 606 389 395 367
6.273027 1329948745.815855 503 489 604 381 390 372
6.309396 1329948745.824302 503 491 605 378 381 375
6.309396 1329948745.832339 506 492 609 376 382 379
6.379874 1329948745.843420 511 494 610 372 383 382
6.379874 1329948745.849277 515 498 608 371 379 383
6.392685 1329948745.857180 515 497 606 373 373 375
6.392685 1329948745.866044 509 496 606 378 375 368
6.434369 1329948745.874191 505 491 604 378 372 368
6.434369 1329948745.882185 502 490 604 380 370 371
6.467668 1329948745.890639 505 491 603 380 376 373
6.467668 1329948745.899284 510 492 601 382 383 375
6.512607 1329948745.907410 510 495 597 384 384 372
6.512607 1329948745.915705 512 496 601 381 385 371
6.561790 1329948745.924352 510 494 604 380 382 370
6.561790 1329948745.932392 511 493 604 381 378 371
6.592470 1329948745.942844 514 496 606 384 374 374
6.592470 1329948745.949257 514 494 607 382 371 375
6.634374 1329948745.957366 511 493 607 375 372 375
6.634374 1329948745.965868 512 491 607 369 374 376
6.670368 1329948745.974290 511 492 606 372 376 377
6.670368 1329948745.982294 511 490 608 373 373 379
6.709092 1329948745.998249 511 490 612 369 366 378
6.709092 1329948746.020482 512 492 614 366 359 377
6.751183 1329948746.033627 514 496 611 365 354 375
6.751183 1329948746.044811 509 495 607 365 359 374
6.792213 1329948746.050577 507 495 605 364 365 373
6.792213 1329948746.061677 504 496 603 368 365 374
6.834059 1329948746.065528 503 497 602 374 365 376
6.834059 1329948746.075001 505 497 600 376 373 376
6.867311 1329948746.082451 504 496 598 376 385 374
6.867311 1329948746.090598 506 492 597 378 395 370
6.908732 1329948746.099080 503 493 597 382 398 368
6.908732 1329948746.107257 506 491 603 383 400 368
6.950902 1329948746.115572 511 493 605 381 398 370
6.950902 1329948746.124077 514 495 606 381 390 369
6.992050 1329948746.141316 513 494 608 378 378 369
6.992050 1329948746.154418 511 492 609 375 371 371
7.034334 1329948746.167839 510 492 609 375 369 373
7.034334 1329948746.173814 515 495 610 377 366 375
7.075269 1329948746.182262 513 495 609 377 365 375
7.075269 1329948746.190553 510 493 607 372 368 374
7.109019 1329948746.198978 510 492 606 365 372 374
7.109019 1329948746.207274 510 494 606 363 373 374
7.150447 1329948746.217676 510 494 605 365 371 374
7.150447 1329948746.223953 510 495 605 367 370 373
7.194850 1329948746.231968 510 497 605 367 372 374
7.194850 1329948746.240553 509 495 605 368 376 373
7.234173 1329948746.249091 507 494 605 368 376 372
7.234173 1329948746.257341 509 494 604 369 374 373
7.275614 1329948746.265692 508 496 602 372 376 373
7.275614 1329948746.273910 508 496 602 377 378 372
7.308854 1329948746.282240 509 496 603 379 381 373
7.308854 1329948746.290483 508 496 604 379 382 371
7.348314 1329948746.309557 509 495 604 377 380 370
7.348314 1329948746.315918 510 495 606 376 376 368
7.392054 1329948746.324117 509 495 607 377 373 369
7.392054 1329948746.332298 509 494 607 376 370 371
7.433735 1329948746.340318 507 494 606 378 369 371
7.433735 1329948746.348908 507 493 605 379 369 371
7.475176 1329948746.362897 512 497 605 374 378 364
7.508593 1329948746.365392 509 495 604 370 386 361
7.542005 1329948746.373711 508 494 603 368 387 361
7.566793 1329948746.382103 507 495 604 370 389 364
7.608662 1329948746.390643 508 494 604 371 389 368
7.608662 1329948746.398626 512 494 604 369 388 368
7.641770 1329948746.408989 515 496 604 370 380 364
7.667079 1329948746.420374 514 498 604 377 379 365
7.708543 1329948746.425519 508 495 605 380 377 366
7.708543 1329948746.432110 499 491 606 381 374 370
7.742086 1329948746.441164 506 494 606 382 370 375
7.766884 1329948746.448649 510 498 609 386 369 373
7.808784 1329948746.465826 507 500 613 386 370 369
7.808784 1329948746.487818 507 500 615 382 369 366
7.849555 1329948746.499146 508 503 616 376 363 360
7.849555 1329948746.507166 510 503 612 377 359 354
7.894435 1329948746.515082 507 505 607 381 355 350
7.894435 1329948746.527631 508 507 601 392 353 347
7.932785 1329948746.532195 517 512 593 399 359 340
7.932785 1329948746.540397 518 518 586 403 367 329
7.974804 1329948746.548998 521 519 580 399 379 318
7.974804 1329948746.556993 525 521 577 396 391 309
8.008235 1329948746.565102 528 524 571 390 399 299
8.008235 1329948746.573686 530 531 571 379 410 286
8.049746 1329948746.582108 532 535 575 376 413 272
8.049746 1329948746.590382 536 533 577 383 416 263
8.092160 1329948746.598821 539 531 579 392 423 256
8.092160 1329948746.607164 543 528 585 403 429 251
8.132874 1329948746.615472 548 525 590 418 431 246
8.132874 1329948746.623650 552 523 592 427 431 237
8.183856 1329948746.631970 555 520 595 423 428 225
8.183856 1329948746.640246 560 515 599 410 421 213
8.211263 1329948746.648672 562 509 601 396 416 203
8.211263 1329948746.656812 564 505 601 381 413 198
8.249714 1329948746.665403 566 504 603 369 414 195
8.249714 1329948746.675477 569 504 609 363 415 191
8.298538 1329948746.682054 571 503 611 366 411 188
8.298538 1329948746.691284 572 506 611 369 412 186
8.333088 1329948746.702692 577 511 618 376 418 180
8.333088 1329948746.716453 580 511 623 395 419 173
8.375099 1329948746.731525 582 512 625 418 419 168
8.375099 1329948746.733575 586 514 630 433 418 166
8.418944 1329948746.740218 592 514 637 455 411 160
8.418944 1329948746.748467 592 511 638 476 400 155
8.449467 1329948746.762696 590 509 641 489 392 153
8.449467 1329948746.785198 591 503 649 503 379 153
8.491161 1329948746.796606 588 497 650 522 359 156
8.491161 1329948746.810515 588 490 647 527 348 160
8.532553 1329948746.815579 592 483 651 520 336 165
8.532553 1329948746.823676 592 477 655 507 318 172
8.575232 1329948746.832097 595 474 656 496 298 182
8.575232 1329948746.840265 598 471 654 494 281 190
8.607490 1329948746.849310 595 466 651 495 264 198
8.607490 1329948746.856929 592 461 646 499 250 211
8.648269 1329948746.865862 587 456 638 498 235 223
8.648269 1329948746.873735 581 452 628 486 229 234
8.691184 1329948746.882069 577 447 621 463 230 244
8.691184 1329948746.890393 573 443 617 446 230 253
8.732797 1329948746.907974 567 439 613 433 234 262
8.732797 1329948746.915262 562 437 609 417 241 276
8.767751 1329948746.925820 559 437 606 401 250 289
8.767751 1329948746.937505 552 440 609 399 256 299
8.808493 1329948746.940485 546 443 608 411 255 306
8.808493 1329948746.948771 542 442 604 424 257 314
8.850095 1329948746.966719 536 439 596 422 266 325
8.850095 1329948746.989662 535 441 587 398 279 337
8.891569 1329948747.003245 534 448 588 369 294 338
8.891569 1329948747.017554 531 450 592 367 295 331
8.934223 1329948747.030078 526 446 591 370 288 331
8.934223 1329948747.043914 520 441 584 350 288 341
8.967722 1329948747.066666 523 443 580 317 295 353
8.967722 1329948747.078596 525 451 584 309 305 358
9.024550 1329948747.092906 524 453 590 343 307 355
9.024550 1329948747.098823 518 446 594 380 303 364
9.051694 1329948747.110319 516 442 591 396 300 380
9.051694 1329948747.115540 520 443 588 399 301 401
9.095756 1329948747.123728 520 446 588 407 300 416
9.095756 1329948747.132103 510 445 586 410 291 427
9.127765 1329948747.140706 505 443 581 396 282 438
9.127765 1329948747.149090 513 447 574 374 274 449
9.167254 1329948747.156969 515 455 571 359 273 458
9.167254 1329948747.165438 509 461 570 352 273 461
9.207175 1329948747.173508 508 464 570 345 270 462
9.207175 1329948747.181948 505 470 569 345 266 469
9.248023 1329948747.190410 498 475 569 358 263 476
9.248023 1329948747.198704 496 479 567 376 254 484
9.289342 1329948747.206869 495 482 564 392 252 493
9.289342 1329948747.215288 495 489 560 404 253 499
9.336657 1329948747.223592 494 497 554 408 252 500
9.336657 1329948747.231855 486 501 547 405 251 499
9.367073 1329948747.240446 484 502 541 392 253 496
9.367073 1329948747.248406 487 506 535 378 255 493
9.407204 1329948747.256854 481 509 530 368 258 488
9.407204 1329948747.265157 480 510 525 362 261 482
9.458370 1329948747.275277 480 511 520 357 263 480
9.458370 1329948747.282194 477 514 515 356 268 480
9.487051 1329948747.289998 475 517 512 363 278 480
9.487051 1329948747.298371 477 521 510 372 284 484
9.529184 1329948747.306680 473 527 507 386 293 493
9.529184 1329948747.315141 470 532 506 405 308 498
9.570570 1329948747.323566 472 539 505 427 324 502
9.570570 1329948747.331817 470 547 502 446 331 509
9.612039 1329948747.347194 465 554 501 463 341 514
9.612039 1329948747.349350 470 561 500 474 358 510
9.653667 1329948747.358025 468 563 502 479 375 508
9.653667 1329948747.365131 466 567 507 481 388 510
9.687059 1329948747.373605 470 571 514 489 397 510
9.687059 1329948747.381704 472 572 520 503 406 507
9.728518 1329948747.390001 475 575 527 519 416 511
9.728518 1329948747.398221 489 582 533 537 423 518
9.770450 1329948747.406759 479 583 540 558 432 518
9.770450 1329948747.415246 488 581 545 574 449 508
9.812678 1329948747.423397 497 581 556 582 467 502
9.812678 1329948747.431790 499 585 570 585 473 500
9.850828 1329948747.444122 489 583 581 587 470 491
9.850828 1329948747.448380 496 583 587 585 477 482
9.898315 1329948747.456829 503 583 596 574 484 475
9.898315 1329948747.465322 491 582 607 553 489 466
9.930782 1329948747.473379 494 580 616 531 492 450
9.930782 1329948747.481794 507 575 625 503 489 436
9.967364 1329948747.495446 499 568 633 479 487 428
9.967364 1329948747.498140 497 565 639 461 479 421
10.028340 1329948747.506788 505 561 641 451 469 413
10.028340 1329948747.515060 507 556 643 450 463 410
10.055562 1329948747.527706 505 550 647 452 456 411
10.055562 1329948747.533090 510 547 649 456 447 411
10.089378 1329948747.548113 514 549 653 465 448 410
10.089378 1329948747.569613 514 548 657 478 447 403
10.130923 1329948747.573605 513 539 657 487 436 391
10.130923 1329948747.581959 513 528 653 484 423 383
10.173368 1329948747.590222 516 522 650 470 413 386
10.173368 1329948747.598671 517 521 647 446 403 388
10.214681 1329948747.607003 515 521 643 419 389 381
10.214681 1329948747.615168 515 515 637 392 374 372
10.247990 1329948747.624393 519 510 630 373 366 369
10.247990 1329948747.632265 515 508 625 366 370 376
10.289133 1329948747.640283 514 507 620 371 374 380
10.289133 1329948747.648940 515 507 617 384 373 379
10.330752 1329948747.659062 513 508 613 390 375 378
10.330752 1329948747.674665 516 509 612 390 379 381
10.372682 1329948747.696643 521 509 611 387 381 379
10.372682 1329948747.699435 518 506 611 384 381 376
10.414314 1329948747.706886 515 506 613 379 377 374
10.414314 1329948747.715136 516 509 615 372 370 378
10.447578 1329948747.723667 520 511 614 365 363 378
10.447578 1329948747.731895 520 510 611 360 361 373
10.488931 1329948747.744546 519 508 611 357 361 367
10.488931 1329948747.748470 519 507 611 362 363 368
10.534201 1329948747.757100 520 508 607 376 366 369
10.572540 1329948747.765048 514 504 604 393 362 368
10.615184 1329948747.773452 510 504 599 382 365 371
10.655697 1329948747.781762 508 503 598 368 368 367
10.688981 1329948747.795025 509 503 599 354 373 363
10.730522 1329948747.800442 512 502 601 360 379 362
10.770124 1329948747.806871 514 501 606 378 382 365
10.813505 1329948747.815174 513 500 607 386 377 368
10.855458 1329948747.823469 513 500 608 382 374 370
10.888774 1329948747.831656 511 498 606 375 371 370
10.931178 1329948747.840119 510 502 606 368 373 374
10.988830 1329948747.848493 509 503 605 371 373 371
10.988830 1329948747.856827 510 503 605 373 374 370
11.015239 1329948747.865017 511 503 605 380 375 372
11.015239 1329948747.873247 510 503 604 384 377 373
11.046715 1329948747.881484 510 503 605 389 379 371
11.046715 1329948747.890750 511 502 605 390 380 371
11.088755 1329948747.899468 512 502 606 386 378 372
11.088755 1329948747.906682 512 502 606 381 378 373
11.130046 1329948747.915050 512 502 607 378 377 371
11.130046 1329948747.923672 513 500 609 374 378 373
11.171409 1329948747.931625 514 500 610 374 373 375
11.171409 1329948747.940204 514 501 608 374 371 375
11.213349 1329948747.952246 513 501 607 376 371 374
11.213349 1329948747.956715 514 500 608 377 373 375
11.255442 1329948747.964980 513 501 609 380 373 377
11.255442 1329948747.973522 513 501 607 383 372 374
11.288392 1329948747.981596 513 501 606 384 372 375
11.288392 1329948747.990557 513 500 607 384 373 377
11.335153 1329948747.998526 513 500 607 384 369 377
11.335153 1329948748.006977 513 501 605 382 370 376
11.371423 1329948748.015428 512 501 604 379 371 375
11.371423 1329948748.023623 512 501 605 376 371 375
11.413188 1329948748.032012 510 501 605 376 368 373
11.413188 1329948748.040275 510 500 602 376 372 372
11.454816 1329948748.048710 511 501 603 376 376 373
11.454816 1329948748.070600 513 501 606 379 377 372
11.497405 1329948748.073822 513 501 607 385 374 370
11.497405 1329948748.082371 513 500 606 391 374 370
11.534964 1329948748.090474 513 498 605 394 375 370
11.534964 1329948748.098617 513 496 607 396 373 371
11.571310 1329948748.106983 512 494 605 397 370 373
11.571310 1329948748.115323 511 493 604 392 369 375
11.612600 1329948748.123500 509 493 605 385 370 378
11.612600 1329948748.132165 508 494 604 377 369 377
11.654753 1329948748.140234 507 494 604 368 370 377
11.654753 1329948748.149118 507 497 606 362 371 379
11.688128 1329948748.157062 507 499 607 362 372 380
11.688128 1329948748.165344 508 500 609 368 370 378
11.729600 1329948748.176266 509 499 607 376 369 375
11.729600 1329948748.182042 511 498 605 380 371 373
11.770945 1329948748.190399 512 496 604 383 373 374
11.770945 1329948748.198517 513 495 603 384 373 373
11.809149 1329948748.206965 513 494 601 384 370 373
11.809149 1329948748.215311 513 494 597 379 371 376
11.862861 1329948748.231598 512 493 594 369 375 379
11.862861 1329948748.255415 511 494 593 357 380 383
11.888712 1329948748.279270 512 498 592 347 382 385
11.888712 1329948748.293497 514 501 592 340 382 384
11.926847 1329948748.298460 515 504 591 341 382 383
11.926847 1329948748.306550 515 507 590 348 384 382
11.974913 1329948748.315205 515 510 588 359 390 378
11.974913 1329948748.323738 519 511 582 372 396 375
12.012389 1329948748.331514 521 513 580 386 403 372
12.012389 1329948748.340359 524 517 576 399 410 371
12.053907 1329948748.348616 528 520 571 406 417 371
12.053907 1329948748.358586 534 522 565 404 420 372
12.087748 1329948748.364986 543 527 560 391 424 370
12.087748 1329948748.373650 552 535 558 374 437 362
12.129140 1329948748.381464 558 541 561 364 454 347
12.129140 1329948748.390117 567 543 565 360 465 335
12.171345 1329948748.398326 571 546 570 358 472 329
12.171345 1329948748.406554 576 551 579 362 478 324
12.220872 1329948748.415225 581 556 592 375 478 315
12.220872 1329948748.425867 587 557 603 394 477 298
12.257112 1329948748.431706 591 556 611 415 474 280
12.257112 1329948748.440288 592 553 616 445 472 262
12.288879 1329948748.448609 592 548 621 470 467 244
12.288879 1329948748.456560 596 542 624 484 464 227
12.328717 1329948748.466113 601 536 627 488 460 204
12.328717 1329948748.473269 607 528 632 491 455 178
12.371260 1329948748.481617 608 518 634 493 442 160
12.371260 1329948748.490187 611 510 633 490 429 149
12.412012 1329948748.498239 616 503 633 485 424 142
12.412012 1329948748.506609 620 497 635 473 415 133
12.448070 1329948748.516755 623 493 636 461 400 124
12.448070 1329948748.528198 629 490 635 455 386 114
12.486980 1329948748.533431 634 486 634 457 379 106
12.486980 1329948748.540076 636 484 634 468 373 107
12.529132 1329948748.548606 631 482 636 478 361 111
12.529132 1329948748.556316 625 482 635 491 343 120
12.575383 1329948748.565117 627 487 631 501 334 125
12.575383 1329948748.573200 623 488 630 508 326 124
12.612203 1329948748.581644 614 484 629 514 312 126
12.612203 1329948748.589700 604 481 624 516 296 136
12.653554 1329948748.598318 596 480 619 511 292 147
12.653554 1329948748.607794 591 478 615 510 292 156
12.686739 1329948748.622354 583 474 612 520 289 168
12.686739 1329948748.625447 576 472 604 515 286 181
12.728464 1329948748.642417 575 473 600 492 295 189
12.728464 1329948748.655304 574 472 598 477 304 198
12.769934 1329948748.670050 571 472 597 481 308 210
12.769934 1329948748.684348 567 471 593 479 314 221
12.813986 1329948748.689709 564 472 595 466 324 232
12.813986 1329948748.698120 561 467 598 477 326 240
12.854627 1329948748.706281 553 461 598 486 320 252
12.854627 1329948748.776623 552 460 592 466 316 269
12.887366 1329948748.776777 556 462 591 447 327 285
12.887366 1329948748.781560 560 462 595 467 333 298
12.929670 1329948748.789627 555 458 596 494 335 313
12.929670 1329948748.798086 549 449 593 494 340 329
12.992218 1329948748.806310 546 444 591 467 348 347
12.992218 1329948748.814662 549 442 593 455 350 362
13.017400 1329948748.822952 549 441 592 446 346 373
13.017400 1329948748.831279 550 440 589 423 345 380
13.047448 1329948748.839467 553 440 587 393 347 393
13.047448 1329948748.848158 550 441 590 384 351 404
13.093400 1329948748.856314 551 442 594 395 352 412
13.093400 1329948748.864615 549 442 598 402 351 420
13.131280 1329948748.872891 544 443 601 411 349 431
13.131280 1329948748.881528 545 445 603 430 348 440
13.174621 1329948748.889629 543 448 604 441 338 452
13.174621 1329948748.909425 538 450 602 427 326 458
13.206342 1329948748.914359 538 451 598 391 308 464
13.206342 1329948748.922833 535 455 593 349 292 469
13.259119 1329948748.931089 534 460 588 314 281 469
13.259119 1329948748.940125 535 465 583 284 268 470
13.289253 1329948748.958666 529 472 580 270 258 472
13.289253 1329948748.964357 525 478 575 277 249 467
13.329577 1329948748.972713 518 481 572 290 239 462
13.329577 1329948748.981382 512 481 569 300 230 459
13.369544 1329948748.989475 515 484 564 303 223 465
13.369544 1329948748.997853 511 489 557 315 220 470
13.410308 1329948749.006145 503 491 552 330 222 470
13.410308 1329948749.014179 499 492 552 344 229 471
13.449642 1329948749.022615 496 492 550 352 229 476
13.449642 1329948749.031206 491 493 546 363 231 482
13.491397 1329948749.039496 487 495 543 377 239 485
13.491397 1329948749.047868 484 496 541 389 246 489
13.533922 1329948749.056181 480 498 539 399 248 495
13.533922 1329948749.067203 475 501 537 412 257 500
13.566118 1329948749.072742 477 504 534 424 264 504
13.566118 1329948749.081181 478 507 532 434 272 505
13.607836 1329948749.089285 471 509 531 440 280 508
13.607836 1329948749.097759 473 514 527 443 284 514
13.649558 1329948749.105979 471 518 524 447 291 518
13.649558 1329948749.120088 467 522 522 454 304 521
